participant,blockcode,trialnum,correct,latency1,stimoli,categorie,Condition,latency.cor,blocco,block,latency
1,Whitegood,2,1,1224,odio,Negativo,comp,1224,prova_comp4,practiceWhitegood,1224
1,Whitegood,4,1,5160,bf14,NeroFemmina,comp,5160,prova_comp4,practiceWhitegood,5160
1,Whitegood,6,1,1214,ridere,Positivo,comp,1214,prova_comp4,practiceWhitegood,1214
1,Whitegood,8,1,1143,bf56,NeroFemmina,comp,1143,prova_comp4,practiceWhitegood,1143
1,Whitegood,10,1,827,cattivo,Negativo,comp,827,prova_comp4,practiceWhitegood,827
1,Whitegood,12,1,1859,wf3,BiancoFem,comp,1859,prova_comp4,practiceWhitegood,1859
1,Whitegood,14,1,876,dolore,Negativo,comp,876,prova_comp4,practiceWhitegood,876
1,Whitegood,16,1,1002,wm1,BiancoMaschio,comp,1002,prova_comp4,practiceWhitegood,1002
1,Whitegood,18,1,932,terribile,Negativo,comp,932,prova_comp4,practiceWhitegood,932
1,Whitegood,20,1,912,bm14,NeroMaschio,comp,912,prova_comp4,practiceWhitegood,912
1,Whitegood,22,1,1334,gloria,Positivo,comp,1334,prova_comp4,practiceWhitegood,1334
1,Whitegood,24,1,682,bm56,NeroMaschio,comp,682,prova_comp4,practiceWhitegood,682
1,Whitegood,26,1,929,male,Negativo,comp,929,prova_comp4,practiceWhitegood,929
1,Whitegood,28,1,580,wf6,BiancoFem,comp,580,prova_comp4,practiceWhitegood,580
1,Whitegood,30,1,743,fallimento,Negativo,comp,743,prova_comp4,practiceWhitegood,743
1,Whitegood,32,1,667,wf2,BiancoFem,comp,667,prova_comp4,practiceWhitegood,667
1,Whitegood,34,1,762,fastidioso,Negativo,comp,762,prova_comp4,practiceWhitegood,762
1,Whitegood,36,1,637,bm23,NeroMaschio,comp,637,prova_comp4,practiceWhitegood,637
1,Whitegood,38,1,702,felicità,Positivo,comp,702,prova_comp4,practiceWhitegood,702
1,Whitegood,40,1,867,wm4,BiancoMaschio,comp,867,prova_comp4,practiceWhitegood,867
1,Whitegood,43,1,866,bf23,NeroFemmina,comp,866,test_comp4,testWhitegood,866
1,Whitegood,45,1,1194,buono,Positivo,comp,1194,test_comp4,testWhitegood,1194
1,Whitegood,47,1,659,bf56,NeroFemmina,comp,659,test_comp4,testWhitegood,659
1,Whitegood,49,1,771,orribile,Negativo,comp,771,test_comp4,testWhitegood,771
1,Whitegood,51,1,694,wm6,BiancoMaschio,comp,694,test_comp4,testWhitegood,694
1,Whitegood,53,1,1124,fastidioso,Negativo,comp,1124,test_comp4,testWhitegood,1124
1,Whitegood,55,1,608,wf2,BiancoFem,comp,608,test_comp4,testWhitegood,608
1,Whitegood,57,1,690,pace,Positivo,comp,690,test_comp4,testWhitegood,690
1,Whitegood,59,1,888,wm4,BiancoMaschio,comp,888,test_comp4,testWhitegood,888
1,Whitegood,61,1,743,piacere,Positivo,comp,743,test_comp4,testWhitegood,743
1,Whitegood,63,1,690,wf6,BiancoFem,comp,690,test_comp4,testWhitegood,690
1,Whitegood,65,1,673,gioia,Positivo,comp,673,test_comp4,testWhitegood,673
1,Whitegood,67,1,975,wm1,BiancoMaschio,comp,975,test_comp4,testWhitegood,975
1,Whitegood,69,1,883,amore,Positivo,comp,883,test_comp4,testWhitegood,883
1,Whitegood,71,1,881,bm56,NeroMaschio,comp,881,test_comp4,testWhitegood,881
1,Whitegood,73,1,679,fallimento,Negativo,comp,679,test_comp4,testWhitegood,679
1,Whitegood,75,1,717,wf3,BiancoFem,comp,717,test_comp4,testWhitegood,717
1,Whitegood,77,1,2235,odio,Negativo,comp,2235,test_comp4,testWhitegood,2235
1,Whitegood,79,1,1235,wm6,BiancoMaschio,comp,1235,test_comp4,testWhitegood,1235
1,Whitegood,81,1,796,dolore,Negativo,comp,796,test_comp4,testWhitegood,796
1,Whitegood,83,1,909,wm4,BiancoMaschio,comp,909,test_comp4,testWhitegood,909
1,Whitegood,85,1,867,ridere,Positivo,comp,867,test_comp4,testWhitegood,867
1,Whitegood,87,1,642,bf23,NeroFemmina,comp,642,test_comp4,testWhitegood,642
1,Whitegood,89,1,914,buono,Positivo,comp,914,test_comp4,testWhitegood,914
1,Whitegood,91,1,1407,bm14,NeroMaschio,comp,1407,test_comp4,testWhitegood,1407
1,Whitegood,93,1,1185,male,Negativo,comp,1185,test_comp4,testWhitegood,1185
1,Whitegood,95,1,636,bm23,NeroMaschio,comp,636,test_comp4,testWhitegood,636
1,Whitegood,97,1,852,orribile,Negativo,comp,852,test_comp4,testWhitegood,852
1,Whitegood,99,1,860,wf6,BiancoFem,comp,860,test_comp4,testWhitegood,860
1,Whitegood,101,1,1739,cattivo,Negativo,comp,1739,test_comp4,testWhitegood,1739
1,Whitegood,103,1,672,bf14,NeroFemmina,comp,672,test_comp4,testWhitegood,672
1,Whitegood,105,1,975,felicità,Positivo,comp,975,test_comp4,testWhitegood,975
1,Whitegood,107,1,609,bf56,NeroFemmina,comp,609,test_comp4,testWhitegood,609
1,Whitegood,109,1,1419,pace,Positivo,comp,1419,test_comp4,testWhitegood,1419
1,Whitegood,111,1,884,wf2,BiancoFem,comp,884,test_comp4,testWhitegood,884
1,Whitegood,113,1,738,amore,Positivo,comp,738,test_comp4,testWhitegood,738
1,Whitegood,115,1,1119,bm14,NeroMaschio,comp,1119,test_comp4,testWhitegood,1119
1,Whitegood,117,1,860,piacere,Positivo,comp,860,test_comp4,testWhitegood,860
1,Whitegood,119,1,699,bm56,NeroMaschio,comp,699,test_comp4,testWhitegood,699
1,Whitegood,121,1,1544,gioia,Positivo,comp,1544,test_comp4,testWhitegood,1544
1,Whitebad,2,1,3725,ridere,Positivo,inc,3725,prova_inc6,practiceWhitebad,3725
1,Whitebad,4,1,1818,wm1,BiancoMaschio,inc,1818,prova_inc6,practiceWhitebad,1818
1,Whitebad,6,1,2204,gloria,Positivo,inc,2204,prova_inc6,practiceWhitebad,2204
1,Whitebad,8,1,1350,bf14,NeroFemmina,inc,1350,prova_inc6,practiceWhitebad,1350
1,Whitebad,10,1,1978,orribile,Negativo,inc,1978,prova_inc6,practiceWhitebad,1978
1,Whitebad,12,1,2324,wf6,BiancoFem,inc,2324,prova_inc6,practiceWhitebad,2324
1,Whitebad,14,1,1082,odio,Negativo,inc,1082,prova_inc6,practiceWhitebad,1082
1,Whitebad,16,1,1696,bf23,NeroFemmina,inc,1696,prova_inc6,practiceWhitebad,1696
1,Whitebad,18,1,2255,pace,Positivo,inc,2255,prova_inc6,practiceWhitebad,2255
1,Whitebad,20,1,1335,bm14,NeroMaschio,inc,1335,prova_inc6,practiceWhitebad,1335
1,Whitebad,22,1,1499,amore,Positivo,inc,1499,prova_inc6,practiceWhitebad,1499
1,Whitebad,24,1,1137,wm4,BiancoMaschio,inc,1137,prova_inc6,practiceWhitebad,1137
1,Whitebad,26,1,1078,buono,Positivo,inc,1078,prova_inc6,practiceWhitebad,1078
1,Whitebad,28,1,1068,bm23,NeroMaschio,inc,1068,prova_inc6,practiceWhitebad,1068
1,Whitebad,30,1,1875,fastidioso,Negativo,inc,1875,prova_inc6,practiceWhitebad,1875
1,Whitebad,32,1,2346,wf2,BiancoFem,inc,2346,prova_inc6,practiceWhitebad,2346
1,Whitebad,34,1,1654,male,Negativo,inc,1654,prova_inc6,practiceWhitebad,1654
1,Whitebad,36,1,1702,wf3,BiancoFem,inc,1702,prova_inc6,practiceWhitebad,1702
1,Whitebad,38,1,1165,gioia,Positivo,inc,1165,prova_inc6,practiceWhitebad,1165
1,Whitebad,40,1,960,wm6,BiancoMaschio,inc,960,prova_inc6,practiceWhitebad,960
1,Whitebad,43,1,1259,bm56,NeroMaschio,inc,1259,test_inc6,testWhitebad,1259
1,Whitebad,45,1,1627,cattivo,Negativo,inc,1627,test_inc6,testWhitebad,1627
1,Whitebad,47,1,1459,wm4,BiancoMaschio,inc,1459,test_inc6,testWhitebad,1459
1,Whitebad,49,1,1315,fallimento,Negativo,inc,1315,test_inc6,testWhitebad,1315
1,Whitebad,51,1,1352,bf56,NeroFemmina,inc,1352,test_inc6,testWhitebad,1352
1,Whitebad,53,1,1988,felicità,Positivo,inc,1988,test_inc6,testWhitebad,1988
1,Whitebad,55,1,2047,wm6,BiancoMaschio,inc,2047,test_inc6,testWhitebad,2047
1,Whitebad,57,1,2119,terribile,Negativo,inc,2119,test_inc6,testWhitebad,2119
1,Whitebad,59,1,773,bf56,NeroFemmina,inc,773,test_inc6,testWhitebad,773
1,Whitebad,61,1,1512,piacere,Positivo,inc,1512,test_inc6,testWhitebad,1512
1,Whitebad,63,1,901,wm1,BiancoMaschio,inc,901,test_inc6,testWhitebad,901
1,Whitebad,65,1,987,amore,Positivo,inc,987,test_inc6,testWhitebad,987
1,Whitebad,67,1,1045,bm56,NeroMaschio,inc,1045,test_inc6,testWhitebad,1045
1,Whitebad,69,1,1478,dolore,Negativo,inc,1478,test_inc6,testWhitebad,1478
1,Whitebad,71,1,1036,bf14,NeroFemmina,inc,1036,test_inc6,testWhitebad,1036
1,Whitebad,73,1,1228,pace,Positivo,inc,1228,test_inc6,testWhitebad,1228
1,Whitebad,75,1,3293,bf23,NeroFemmina,inc,3293,test_inc6,testWhitebad,3293
1,Whitebad,77,1,1588,fastidioso,Negativo,inc,1588,test_inc6,testWhitebad,1588
1,Whitebad,79,1,2127,wf2,BiancoFem,inc,2127,test_inc6,testWhitebad,2127
1,Whitebad,81,1,1108,cattivo,Negativo,inc,1108,test_inc6,testWhitebad,1108
1,Whitebad,83,1,937,wf6,BiancoFem,inc,937,test_inc6,testWhitebad,937
1,Whitebad,85,1,966,gloria,Positivo,inc,966,test_inc6,testWhitebad,966
1,Whitebad,87,1,1064,wf3,BiancoFem,inc,1064,test_inc6,testWhitebad,1064
1,Whitebad,89,1,1200,gioia,Positivo,inc,1200,test_inc6,testWhitebad,1200
1,Whitebad,91,1,1161,bm23,NeroMaschio,inc,1161,test_inc6,testWhitebad,1161
1,Whitebad,93,1,1277,felicità,Positivo,inc,1277,test_inc6,testWhitebad,1277
1,Whitebad,95,1,940,bm14,NeroMaschio,inc,940,test_inc6,testWhitebad,940
1,Whitebad,97,1,1080,male,Negativo,inc,1080,test_inc6,testWhitebad,1080
1,Whitebad,99,1,822,bf14,NeroFemmina,inc,822,test_inc6,testWhitebad,822
1,Whitebad,101,1,1048,piacere,Positivo,inc,1048,test_inc6,testWhitebad,1048
1,Whitebad,103,1,983,wf3,BiancoFem,inc,983,test_inc6,testWhitebad,983
1,Whitebad,105,1,938,odio,Negativo,inc,938,test_inc6,testWhitebad,938
1,Whitebad,107,1,902,wf2,BiancoFem,inc,902,test_inc6,testWhitebad,902
1,Whitebad,109,1,1004,ridere,Positivo,inc,1004,test_inc6,testWhitebad,1004
1,Whitebad,111,1,1173,bf23,NeroFemmina,inc,1173,test_inc6,testWhitebad,1173
1,Whitebad,113,1,1032,terribile,Negativo,inc,1032,test_inc6,testWhitebad,1032
1,Whitebad,115,1,1673,wm6,BiancoMaschio,inc,1673,test_inc6,testWhitebad,1673
1,Whitebad,117,1,1392,fallimento,Negativo,inc,1392,test_inc6,testWhitebad,1392
1,Whitebad,119,1,906,bm23,NeroMaschio,inc,906,test_inc6,testWhitebad,906
1,Whitebad,121,1,1224,orribile,Negativo,inc,1224,test_inc6,testWhitebad,1224
2,Whitegood,2,1,1362,orribile,Negativo,comp,1362,prova_comp5,practiceWhitegood,1362
2,Whitegood,4,1,709,wf2,BiancoFem,comp,709,prova_comp5,practiceWhitegood,709
2,Whitegood,6,1,706,dolore,Negativo,comp,706,prova_comp5,practiceWhitegood,706
2,Whitegood,8,1,528,wf6,BiancoFem,comp,528,prova_comp5,practiceWhitegood,528
2,Whitegood,10,1,621,terribile,Negativo,comp,621,prova_comp5,practiceWhitegood,621
2,Whitegood,12,1,598,bf14,NeroFemmina,comp,598,prova_comp5,practiceWhitegood,598
2,Whitegood,14,1,480,gioia,Positivo,comp,480,prova_comp5,practiceWhitegood,480
2,Whitegood,16,1,518,bf56,NeroFemmina,comp,518,prova_comp5,practiceWhitegood,518
2,Whitegood,18,1,507,male,Negativo,comp,507,prova_comp5,practiceWhitegood,507
2,Whitegood,20,1,432,bm23,NeroMaschio,comp,432,prova_comp5,practiceWhitegood,432
2,Whitegood,22,1,528,fallimento,Negativo,comp,528,prova_comp5,practiceWhitegood,528
2,Whitegood,24,1,485,wm4,BiancoMaschio,comp,485,prova_comp5,practiceWhitegood,485
2,Whitegood,26,1,435,amore,Positivo,comp,435,prova_comp5,practiceWhitegood,435
2,Whitegood,28,1,507,bm14,NeroMaschio,comp,507,prova_comp5,practiceWhitegood,507
2,Whitegood,30,1,633,odio,Negativo,comp,633,prova_comp5,practiceWhitegood,633
2,Whitegood,32,1,521,wf3,BiancoFem,comp,521,prova_comp5,practiceWhitegood,521
2,Whitegood,34,1,1038,cattivo,Negativo,comp,1038,prova_comp5,practiceWhitegood,1038
2,Whitegood,36,1,470,bm56,NeroMaschio,comp,470,prova_comp5,practiceWhitegood,470
2,Whitegood,38,1,645,fastidioso,Negativo,comp,645,prova_comp5,practiceWhitegood,645
2,Whitegood,40,1,476,wm6,BiancoMaschio,comp,476,prova_comp5,practiceWhitegood,476
2,Whitegood,43,1,798,wm1,BiancoMaschio,comp,798,test_comp5,testWhitegood,798
2,Whitegood,45,1,504,piacere,Positivo,comp,504,test_comp5,testWhitegood,504
2,Whitegood,47,1,478,bf23,NeroFemmina,comp,478,test_comp5,testWhitegood,478
2,Whitegood,49,1,564,pace,Positivo,comp,564,test_comp5,testWhitegood,564
2,Whitegood,51,1,479,wf3,BiancoFem,comp,479,test_comp5,testWhitegood,479
2,Whitegood,53,1,550,dolore,Negativo,comp,550,test_comp5,testWhitegood,550
2,Whitegood,55,1,402,bf23,NeroFemmina,comp,402,test_comp5,testWhitegood,402
2,Whitegood,57,1,427,fallimento,Negativo,comp,427,test_comp5,testWhitegood,427
2,Whitegood,59,1,436,wm1,BiancoMaschio,comp,436,test_comp5,testWhitegood,436
2,Whitegood,61,1,516,terribile,Negativo,comp,516,test_comp5,testWhitegood,516
2,Whitegood,63,1,457,bf14,NeroFemmina,comp,457,test_comp5,testWhitegood,457
2,Whitegood,65,1,537,male,Negativo,comp,537,test_comp5,testWhitegood,537
2,Whitegood,67,1,429,wm4,BiancoMaschio,comp,429,test_comp5,testWhitegood,429
2,Whitegood,69,1,405,gloria,Positivo,comp,405,test_comp5,testWhitegood,405
2,Whitegood,71,1,423,bm56,NeroMaschio,comp,423,test_comp5,testWhitegood,423
2,Whitegood,73,1,496,ridere,Positivo,comp,496,test_comp5,testWhitegood,496
2,Whitegood,75,1,765,bf56,NeroFemmina,comp,765,test_comp5,testWhitegood,765
2,Whitegood,77,1,472,fastidioso,Negativo,comp,472,test_comp5,testWhitegood,472
2,Whitegood,79,1,431,bm14,NeroMaschio,comp,431,test_comp5,testWhitegood,431
2,Whitegood,81,1,488,buono,Positivo,comp,488,test_comp5,testWhitegood,488
2,Whitegood,83,1,605,bm23,NeroMaschio,comp,605,test_comp5,testWhitegood,605
2,Whitegood,85,1,503,felicità,Positivo,comp,503,test_comp5,testWhitegood,503
2,Whitegood,87,1,580,bm23,NeroMaschio,comp,580,test_comp5,testWhitegood,580
2,Whitegood,89,1,487,pace,Positivo,comp,487,test_comp5,testWhitegood,487
2,Whitegood,91,1,502,bf56,NeroFemmina,comp,502,test_comp5,testWhitegood,502
2,Whitegood,93,1,452,buono,Positivo,comp,452,test_comp5,testWhitegood,452
2,Whitegood,95,1,579,wm6,BiancoMaschio,comp,579,test_comp5,testWhitegood,579
2,Whitegood,97,1,582,orribile,Negativo,comp,582,test_comp5,testWhitegood,582
2,Whitegood,99,1,528,wf2,BiancoFem,comp,528,test_comp5,testWhitegood,528
2,Whitegood,101,1,645,ridere,Positivo,comp,645,test_comp5,testWhitegood,645
2,Whitegood,103,1,436,wf6,BiancoFem,comp,436,test_comp5,testWhitegood,436
2,Whitegood,105,1,389,felicità,Positivo,comp,389,test_comp5,testWhitegood,389
2,Whitegood,107,1,447,wm6,BiancoMaschio,comp,447,test_comp5,testWhitegood,447
2,Whitegood,109,1,391,gioia,Positivo,comp,391,test_comp5,testWhitegood,391
2,Whitegood,111,1,361,wm1,BiancoMaschio,comp,361,test_comp5,testWhitegood,361
2,Whitegood,113,1,365,piacere,Positivo,comp,365,test_comp5,testWhitegood,365
2,Whitegood,115,1,495,bm56,NeroMaschio,comp,495,test_comp5,testWhitegood,495
2,Whitegood,117,1,462,gloria,Positivo,comp,462,test_comp5,testWhitegood,462
2,Whitegood,119,1,373,wm4,BiancoMaschio,comp,373,test_comp5,testWhitegood,373
2,Whitegood,121,1,472,cattivo,Negativo,comp,472,test_comp5,testWhitegood,472
2,Whitebad,2,1,1525,fallimento,Negativo,inc,1525,prova_inc7,practiceWhitebad,1525
2,Whitebad,4,1,1233,wm4,BiancoMaschio,inc,1233,prova_inc7,practiceWhitebad,1233
2,Whitebad,6,0,1090,dolore,Negativo,inc,2520,prova_inc7,practiceWhitebad,2520
2,Whitebad,9,1,902,bm56,NeroMaschio,inc,902,prova_inc7,practiceWhitebad,902
2,Whitebad,11,1,581,felicità,Positivo,inc,581,prova_inc7,practiceWhitebad,581
2,Whitebad,13,1,471,bm14,NeroMaschio,inc,471,prova_inc7,practiceWhitebad,471
2,Whitebad,15,0,494,cattivo,Negativo,inc,1728,prova_inc7,practiceWhitebad,1728
2,Whitebad,18,1,945,bf14,NeroFemmina,inc,945,prova_inc7,practiceWhitebad,945
2,Whitebad,20,1,1422,odio,Negativo,inc,1422,prova_inc7,practiceWhitebad,1422
2,Whitebad,22,1,1239,wf3,BiancoFem,inc,1239,prova_inc7,practiceWhitebad,1239
2,Whitebad,24,1,1599,gloria,Positivo,inc,1599,prova_inc7,practiceWhitebad,1599
2,Whitebad,26,1,785,wf6,BiancoFem,inc,785,prova_inc7,practiceWhitebad,785
2,Whitebad,28,1,1996,ridere,Positivo,inc,1996,prova_inc7,practiceWhitebad,1996
2,Whitebad,30,1,1038,bm23,NeroMaschio,inc,1038,prova_inc7,practiceWhitebad,1038
2,Whitebad,32,1,966,terribile,Negativo,inc,966,prova_inc7,practiceWhitebad,966
2,Whitebad,34,1,1001,wm6,BiancoMaschio,inc,1001,prova_inc7,practiceWhitebad,1001
2,Whitebad,36,1,1203,amore,Positivo,inc,1203,prova_inc7,practiceWhitebad,1203
2,Whitebad,38,1,781,bf23,NeroFemmina,inc,781,prova_inc7,practiceWhitebad,781
2,Whitebad,40,1,695,fastidioso,Negativo,inc,695,prova_inc7,practiceWhitebad,695
2,Whitebad,42,1,885,bf56,NeroFemmina,inc,885,prova_inc7,practiceWhitebad,885
2,Whitebad,45,1,1251,bf23,NeroFemmina,inc,1251,test_inc7,testWhitebad,1251
2,Whitebad,47,1,571,piacere,Positivo,inc,571,test_inc7,testWhitebad,571
2,Whitebad,49,1,502,bm56,NeroMaschio,inc,502,test_inc7,testWhitebad,502
2,Whitebad,51,1,523,orribile,Negativo,inc,523,test_inc7,testWhitebad,523
2,Whitebad,53,1,568,bm23,NeroMaschio,inc,568,test_inc7,testWhitebad,568
2,Whitebad,55,1,459,pace,Positivo,inc,459,test_inc7,testWhitebad,459
2,Whitebad,57,1,522,wm1,BiancoMaschio,inc,522,test_inc7,testWhitebad,522
2,Whitebad,59,0,759,male,Negativo,inc,1384,test_inc7,testWhitebad,1384
2,Whitebad,62,1,1001,bf14,NeroFemmina,inc,1001,test_inc7,testWhitebad,1001
2,Whitebad,64,1,506,gioia,Positivo,inc,506,test_inc7,testWhitebad,506
2,Whitebad,66,1,608,wf2,BiancoFem,inc,608,test_inc7,testWhitebad,608
2,Whitebad,68,0,1977,buono,Positivo,inc,2708,test_inc7,testWhitebad,2708
2,Whitebad,71,1,1335,wm1,BiancoMaschio,inc,1335,test_inc7,testWhitebad,1335
2,Whitebad,73,1,1332,gioia,Positivo,inc,1332,test_inc7,testWhitebad,1332
2,Whitebad,75,1,744,wf6,BiancoFem,inc,744,test_inc7,testWhitebad,744
2,Whitebad,77,1,1124,male,Negativo,inc,1124,test_inc7,testWhitebad,1124
2,Whitebad,79,1,1201,wf3,BiancoFem,inc,1201,test_inc7,testWhitebad,1201
2,Whitebad,81,0,651,piacere,Positivo,inc,1299,test_inc7,testWhitebad,1299
2,Whitebad,84,1,863,bf56,NeroFemmina,inc,863,test_inc7,testWhitebad,863
2,Whitebad,86,1,655,felicità,Positivo,inc,655,test_inc7,testWhitebad,655
2,Whitebad,88,1,999,wm4,BiancoMaschio,inc,999,test_inc7,testWhitebad,999
2,Whitebad,90,1,2025,gloria,Positivo,inc,2025,test_inc7,testWhitebad,2025
2,Whitebad,92,1,1017,wm6,BiancoMaschio,inc,1017,test_inc7,testWhitebad,1017
2,Whitebad,94,1,1003,terribile,Negativo,inc,1003,test_inc7,testWhitebad,1003
2,Whitebad,96,1,684,bm14,NeroMaschio,inc,684,test_inc7,testWhitebad,684
2,Whitebad,98,1,1003,fallimento,Negativo,inc,1003,test_inc7,testWhitebad,1003
2,Whitebad,100,1,860,bm14,NeroMaschio,inc,860,test_inc7,testWhitebad,860
2,Whitebad,102,1,716,dolore,Negativo,inc,716,test_inc7,testWhitebad,716
2,Whitebad,104,1,929,wf2,BiancoFem,inc,929,test_inc7,testWhitebad,929
2,Whitebad,106,1,670,pace,Positivo,inc,670,test_inc7,testWhitebad,670
2,Whitebad,108,1,1045,wm6,BiancoMaschio,inc,1045,test_inc7,testWhitebad,1045
2,Whitebad,110,0,525,buono,Positivo,inc,1117,test_inc7,testWhitebad,1117
2,Whitebad,113,1,1122,wf2,BiancoFem,inc,1122,test_inc7,testWhitebad,1122
2,Whitebad,115,1,1415,fastidioso,Negativo,inc,1415,test_inc7,testWhitebad,1415
2,Whitebad,117,1,1328,bf23,NeroFemmina,inc,1328,test_inc7,testWhitebad,1328
2,Whitebad,119,1,909,cattivo,Negativo,inc,909,test_inc7,testWhitebad,909
2,Whitebad,121,1,1330,wm4,BiancoMaschio,inc,1330,test_inc7,testWhitebad,1330
2,Whitebad,123,1,871,ridere,Positivo,inc,871,test_inc7,testWhitebad,871
2,Whitebad,125,1,654,bf14,NeroFemmina,inc,654,test_inc7,testWhitebad,654
2,Whitebad,127,1,1046,odio,Negativo,inc,1046,test_inc7,testWhitebad,1046
3,Whitegood,2,1,1028,amore,Positivo,comp,1028,prova_comp4,practiceWhitegood,1028
3,Whitegood,4,1,1372,bf14,NeroFemmina,comp,1372,prova_comp4,practiceWhitegood,1372
3,Whitegood,6,1,1119,fastidioso,Negativo,comp,1119,prova_comp4,practiceWhitegood,1119
3,Whitegood,8,1,820,bm23,NeroMaschio,comp,820,prova_comp4,practiceWhitegood,820
3,Whitegood,10,1,982,dolore,Negativo,comp,982,prova_comp4,practiceWhitegood,982
3,Whitegood,12,1,856,wm4,BiancoMaschio,comp,856,prova_comp4,practiceWhitegood,856
3,Whitegood,14,1,1248,terribile,Negativo,comp,1248,prova_comp4,practiceWhitegood,1248
3,Whitegood,16,1,895,wf2,BiancoFem,comp,895,prova_comp4,practiceWhitegood,895
3,Whitegood,18,1,958,buono,Positivo,comp,958,prova_comp4,practiceWhitegood,958
3,Whitegood,20,1,825,bm56,NeroMaschio,comp,825,prova_comp4,practiceWhitegood,825
3,Whitegood,22,1,834,odio,Negativo,comp,834,prova_comp4,practiceWhitegood,834
3,Whitegood,24,1,843,bm14,NeroMaschio,comp,843,prova_comp4,practiceWhitegood,843
3,Whitegood,26,1,675,piacere,Positivo,comp,675,prova_comp4,practiceWhitegood,675
3,Whitegood,28,1,713,bf56,NeroFemmina,comp,713,prova_comp4,practiceWhitegood,713
3,Whitegood,30,1,687,pace,Positivo,comp,687,prova_comp4,practiceWhitegood,687
3,Whitegood,32,1,733,wm6,BiancoMaschio,comp,733,prova_comp4,practiceWhitegood,733
3,Whitegood,34,0,753,felicità,Positivo,comp,1220,prova_comp4,practiceWhitegood,1220
3,Whitegood,37,1,865,wm1,BiancoMaschio,comp,865,prova_comp4,practiceWhitegood,865
3,Whitegood,39,1,824,gloria,Positivo,comp,824,prova_comp4,practiceWhitegood,824
3,Whitegood,41,1,537,wf6,BiancoFem,comp,537,prova_comp4,practiceWhitegood,537
3,Whitegood,44,1,842,bf23,NeroFemmina,comp,842,test_comp4,testWhitegood,842
3,Whitegood,46,1,666,ridere,Positivo,comp,666,test_comp4,testWhitegood,666
3,Whitegood,48,1,521,wf3,BiancoFem,comp,521,test_comp4,testWhitegood,521
3,Whitegood,50,1,518,gioia,Positivo,comp,518,test_comp4,testWhitegood,518
3,Whitegood,52,1,475,wf3,BiancoFem,comp,475,test_comp4,testWhitegood,475
3,Whitegood,54,1,690,fallimento,Negativo,comp,690,test_comp4,testWhitegood,690
3,Whitegood,56,1,552,wm6,BiancoMaschio,comp,552,test_comp4,testWhitegood,552
3,Whitegood,58,1,451,felicità,Positivo,comp,451,test_comp4,testWhitegood,451
3,Whitegood,60,1,643,bf56,NeroFemmina,comp,643,test_comp4,testWhitegood,643
3,Whitegood,62,1,747,orribile,Negativo,comp,747,test_comp4,testWhitegood,747
3,Whitegood,64,1,527,wm1,BiancoMaschio,comp,527,test_comp4,testWhitegood,527
3,Whitegood,66,1,524,cattivo,Negativo,comp,524,test_comp4,testWhitegood,524
3,Whitegood,68,1,480,bm14,NeroMaschio,comp,480,test_comp4,testWhitegood,480
3,Whitegood,70,1,471,pace,Positivo,comp,471,test_comp4,testWhitegood,471
3,Whitegood,72,1,534,wm4,BiancoMaschio,comp,534,test_comp4,testWhitegood,534
3,Whitegood,74,1,538,gioia,Positivo,comp,538,test_comp4,testWhitegood,538
3,Whitegood,76,1,455,bm56,NeroMaschio,comp,455,test_comp4,testWhitegood,455
3,Whitegood,78,1,494,male,Negativo,comp,494,test_comp4,testWhitegood,494
3,Whitegood,80,1,372,wf2,BiancoFem,comp,372,test_comp4,testWhitegood,372
3,Whitegood,82,0,471,male,Negativo,comp,794,test_comp4,testWhitegood,794
3,Whitegood,85,1,551,bf14,NeroFemmina,comp,551,test_comp4,testWhitegood,551
3,Whitegood,87,1,487,piacere,Positivo,comp,487,test_comp4,testWhitegood,487
3,Whitegood,89,1,525,bm23,NeroMaschio,comp,525,test_comp4,testWhitegood,525
3,Whitegood,91,1,546,buono,Positivo,comp,546,test_comp4,testWhitegood,546
3,Whitegood,93,1,541,wf6,BiancoFem,comp,541,test_comp4,testWhitegood,541
3,Whitegood,95,1,489,dolore,Negativo,comp,489,test_comp4,testWhitegood,489
3,Whitegood,97,1,519,bf23,NeroFemmina,comp,519,test_comp4,testWhitegood,519
3,Whitegood,99,1,469,fallimento,Negativo,comp,469,test_comp4,testWhitegood,469
3,Whitegood,101,1,499,wf6,BiancoFem,comp,499,test_comp4,testWhitegood,499
3,Whitegood,103,1,649,ridere,Positivo,comp,649,test_comp4,testWhitegood,649
3,Whitegood,105,1,520,wf3,BiancoFem,comp,520,test_comp4,testWhitegood,520
3,Whitegood,107,1,517,fastidioso,Negativo,comp,517,test_comp4,testWhitegood,517
3,Whitegood,109,1,474,bf23,NeroFemmina,comp,474,test_comp4,testWhitegood,474
3,Whitegood,111,1,449,amore,Positivo,comp,449,test_comp4,testWhitegood,449
3,Whitegood,113,1,473,bf14,NeroFemmina,comp,473,test_comp4,testWhitegood,473
3,Whitegood,115,1,584,cattivo,Negativo,comp,584,test_comp4,testWhitegood,584
3,Whitegood,117,1,434,bm56,NeroMaschio,comp,434,test_comp4,testWhitegood,434
3,Whitegood,119,1,714,odio,Negativo,comp,714,test_comp4,testWhitegood,714
3,Whitegood,121,1,820,wm1,BiancoMaschio,comp,820,test_comp4,testWhitegood,820
3,Whitegood,123,0,517,terribile,Negativo,comp,813,test_comp4,testWhitegood,813
3,Whitebad,2,1,796,gioia,Positivo,inc,796,prova_inc6,practiceWhitebad,796
3,Whitebad,4,1,1110,wm4,BiancoMaschio,inc,1110,prova_inc6,practiceWhitebad,1110
3,Whitebad,6,1,916,fallimento,Negativo,inc,916,prova_inc6,practiceWhitebad,916
3,Whitebad,8,1,617,bf23,NeroFemmina,inc,617,prova_inc6,practiceWhitebad,617
3,Whitebad,10,0,802,gloria,Positivo,inc,1235,prova_inc6,practiceWhitebad,1235
3,Whitebad,13,1,545,bm56,NeroMaschio,inc,545,prova_inc6,practiceWhitebad,545
3,Whitebad,15,1,1261,piacere,Positivo,inc,1261,prova_inc6,practiceWhitebad,1261
3,Whitebad,17,1,561,wf3,BiancoFem,inc,561,prova_inc6,practiceWhitebad,561
3,Whitebad,19,1,861,ridere,Positivo,inc,861,prova_inc6,practiceWhitebad,861
3,Whitebad,21,0,827,bm23,NeroMaschio,inc,1357,prova_inc6,practiceWhitebad,1357
3,Whitebad,24,1,894,amore,Positivo,inc,894,prova_inc6,practiceWhitebad,894
3,Whitebad,26,1,772,wf6,BiancoFem,inc,772,prova_inc6,practiceWhitebad,772
3,Whitebad,28,1,831,odio,Negativo,inc,831,prova_inc6,practiceWhitebad,831
3,Whitebad,30,1,1191,wf2,BiancoFem,inc,1191,prova_inc6,practiceWhitebad,1191
3,Whitebad,32,0,711,dolore,Negativo,inc,1145,prova_inc6,practiceWhitebad,1145
3,Whitebad,35,1,754,bf56,NeroFemmina,inc,754,prova_inc6,practiceWhitebad,754
3,Whitebad,37,1,998,buono,Positivo,inc,998,prova_inc6,practiceWhitebad,998
3,Whitebad,39,1,1031,bf14,NeroFemmina,inc,1031,prova_inc6,practiceWhitebad,1031
3,Whitebad,41,0,760,pace,Positivo,inc,1033,prova_inc6,practiceWhitebad,1033
3,Whitebad,44,1,831,bm14,NeroMaschio,inc,831,prova_inc6,practiceWhitebad,831
3,Whitebad,47,1,1073,wm1,BiancoMaschio,inc,1073,test_inc6,testWhitebad,1073
3,Whitebad,49,1,649,felicità,Positivo,inc,649,test_inc6,testWhitebad,649
3,Whitebad,51,1,632,bm14,NeroMaschio,inc,632,test_inc6,testWhitebad,632
3,Whitebad,53,1,681,amore,Positivo,inc,681,test_inc6,testWhitebad,681
3,Whitebad,55,1,503,bm56,NeroMaschio,inc,503,test_inc6,testWhitebad,503
3,Whitebad,57,1,444,felicità,Positivo,inc,444,test_inc6,testWhitebad,444
3,Whitebad,59,1,564,wm6,BiancoMaschio,inc,564,test_inc6,testWhitebad,564
3,Whitebad,61,1,1151,ridere,Positivo,inc,1151,test_inc6,testWhitebad,1151
3,Whitebad,63,1,659,wm4,BiancoMaschio,inc,659,test_inc6,testWhitebad,659
3,Whitebad,65,1,699,male,Negativo,inc,699,test_inc6,testWhitebad,699
3,Whitebad,67,1,536,bf56,NeroFemmina,inc,536,test_inc6,testWhitebad,536
3,Whitebad,69,1,549,orribile,Negativo,inc,549,test_inc6,testWhitebad,549
3,Whitebad,71,0,512,wm6,BiancoMaschio,inc,852,test_inc6,testWhitebad,852
3,Whitebad,74,1,668,fastidioso,Negativo,inc,668,test_inc6,testWhitebad,668
3,Whitebad,76,1,651,wm1,BiancoMaschio,inc,651,test_inc6,testWhitebad,651
3,Whitebad,78,1,811,terribile,Negativo,inc,811,test_inc6,testWhitebad,811
3,Whitebad,80,1,524,bf23,NeroFemmina,inc,524,test_inc6,testWhitebad,524
3,Whitebad,82,0,849,cattivo,Negativo,inc,1247,test_inc6,testWhitebad,1247
3,Whitebad,85,1,984,wf2,BiancoFem,inc,984,test_inc6,testWhitebad,984
3,Whitebad,87,1,682,piacere,Positivo,inc,682,test_inc6,testWhitebad,682
3,Whitebad,89,1,496,bf14,NeroFemmina,inc,496,test_inc6,testWhitebad,496
3,Whitebad,91,1,575,cattivo,Negativo,inc,575,test_inc6,testWhitebad,575
3,Whitebad,93,0,449,wf3,BiancoFem,inc,752,test_inc6,testWhitebad,752
3,Whitebad,96,1,468,pace,Positivo,inc,468,test_inc6,testWhitebad,468
3,Whitebad,98,0,479,wf6,BiancoFem,inc,866,test_inc6,testWhitebad,866
3,Whitebad,101,1,661,gioia,Positivo,inc,661,test_inc6,testWhitebad,661
3,Whitebad,103,0,780,bm23,NeroMaschio,inc,1497,test_inc6,testWhitebad,1497
3,Whitebad,106,1,1241,dolore,Negativo,inc,1241,test_inc6,testWhitebad,1241
3,Whitebad,108,1,849,bf14,NeroFemmina,inc,849,test_inc6,testWhitebad,849
3,Whitebad,110,1,681,male,Negativo,inc,681,test_inc6,testWhitebad,681
3,Whitebad,112,1,679,wf2,BiancoFem,inc,679,test_inc6,testWhitebad,679
3,Whitebad,114,1,1390,gloria,Positivo,inc,1390,test_inc6,testWhitebad,1390
3,Whitebad,116,0,616,wf6,BiancoFem,inc,895,test_inc6,testWhitebad,895
3,Whitebad,119,0,781,fastidioso,Negativo,inc,1195,test_inc6,testWhitebad,1195
3,Whitebad,122,1,703,wf3,BiancoFem,inc,703,test_inc6,testWhitebad,703
3,Whitebad,124,1,1277,odio,Negativo,inc,1277,test_inc6,testWhitebad,1277
3,Whitebad,126,1,755,bm14,NeroMaschio,inc,755,test_inc6,testWhitebad,755
3,Whitebad,128,1,1463,terribile,Negativo,inc,1463,test_inc6,testWhitebad,1463
3,Whitebad,130,1,726,bf23,NeroFemmina,inc,726,test_inc6,testWhitebad,726
3,Whitebad,132,1,803,orribile,Negativo,inc,803,test_inc6,testWhitebad,803
4,Whitegood,2,1,860,cattivo,Negativo,comp,860,prova_comp5,practiceWhitegood,860
4,Whitegood,4,1,1059,wf2,BiancoFem,comp,1059,prova_comp5,practiceWhitegood,1059
4,Whitegood,6,1,1107,ridere,Positivo,comp,1107,prova_comp5,practiceWhitegood,1107
4,Whitegood,8,1,665,wf6,BiancoFem,comp,665,prova_comp5,practiceWhitegood,665
4,Whitegood,10,1,616,orribile,Negativo,comp,616,prova_comp5,practiceWhitegood,616
4,Whitegood,12,1,625,bm56,NeroMaschio,comp,625,prova_comp5,practiceWhitegood,625
4,Whitegood,14,0,578,fastidioso,Negativo,comp,1005,prova_comp5,practiceWhitegood,1005
4,Whitegood,17,1,819,bm23,NeroMaschio,comp,819,prova_comp5,practiceWhitegood,819
4,Whitegood,19,1,580,terribile,Negativo,comp,580,prova_comp5,practiceWhitegood,580
4,Whitegood,21,1,590,wm1,BiancoMaschio,comp,590,prova_comp5,practiceWhitegood,590
4,Whitegood,23,1,464,gioia,Positivo,comp,464,prova_comp5,practiceWhitegood,464
4,Whitegood,25,1,615,wm4,BiancoMaschio,comp,615,prova_comp5,practiceWhitegood,615
4,Whitegood,27,1,472,pace,Positivo,comp,472,prova_comp5,practiceWhitegood,472
4,Whitegood,29,1,551,bf23,NeroFemmina,comp,551,prova_comp5,practiceWhitegood,551
4,Whitegood,31,1,459,dolore,Negativo,comp,459,prova_comp5,practiceWhitegood,459
4,Whitegood,33,1,617,bm14,NeroMaschio,comp,617,prova_comp5,practiceWhitegood,617
4,Whitegood,35,1,474,male,Negativo,comp,474,prova_comp5,practiceWhitegood,474
4,Whitegood,37,1,489,wf3,BiancoFem,comp,489,prova_comp5,practiceWhitegood,489
4,Whitegood,39,1,495,odio,Negativo,comp,495,prova_comp5,practiceWhitegood,495
4,Whitegood,41,1,557,wm6,BiancoMaschio,comp,557,prova_comp5,practiceWhitegood,557
4,Whitegood,44,1,577,wm6,BiancoMaschio,comp,577,test_comp5,testWhitegood,577
4,Whitegood,46,1,509,felicità,Positivo,comp,509,test_comp5,testWhitegood,509
4,Whitegood,48,1,450,wf2,BiancoFem,comp,450,test_comp5,testWhitegood,450
4,Whitegood,50,1,497,gloria,Positivo,comp,497,test_comp5,testWhitegood,497
4,Whitegood,52,1,815,wm4,BiancoMaschio,comp,815,test_comp5,testWhitegood,815
4,Whitegood,54,1,480,fallimento,Negativo,comp,480,test_comp5,testWhitegood,480
4,Whitegood,56,1,446,bf56,NeroFemmina,comp,446,test_comp5,testWhitegood,446
4,Whitegood,58,1,510,piacere,Positivo,comp,510,test_comp5,testWhitegood,510
4,Whitegood,60,1,443,bf14,NeroFemmina,comp,443,test_comp5,testWhitegood,443
4,Whitegood,62,1,508,orribile,Negativo,comp,508,test_comp5,testWhitegood,508
4,Whitegood,64,1,441,bf56,NeroFemmina,comp,441,test_comp5,testWhitegood,441
4,Whitegood,66,1,505,fallimento,Negativo,comp,505,test_comp5,testWhitegood,505
4,Whitegood,68,1,447,bm23,NeroMaschio,comp,447,test_comp5,testWhitegood,447
4,Whitegood,70,1,431,cattivo,Negativo,comp,431,test_comp5,testWhitegood,431
4,Whitegood,72,1,511,wm1,BiancoMaschio,comp,511,test_comp5,testWhitegood,511
4,Whitegood,74,1,565,amore,Positivo,comp,565,test_comp5,testWhitegood,565
4,Whitegood,76,1,479,bf23,NeroFemmina,comp,479,test_comp5,testWhitegood,479
4,Whitegood,78,0,494,fastidioso,Negativo,comp,857,test_comp5,testWhitegood,857
4,Whitegood,81,1,501,bm56,NeroMaschio,comp,501,test_comp5,testWhitegood,501
4,Whitegood,83,1,675,buono,Positivo,comp,675,test_comp5,testWhitegood,675
4,Whitegood,85,1,601,wf6,BiancoFem,comp,601,test_comp5,testWhitegood,601
4,Whitegood,87,1,539,gioia,Positivo,comp,539,test_comp5,testWhitegood,539
4,Whitegood,89,1,567,bf14,NeroFemmina,comp,567,test_comp5,testWhitegood,567
4,Whitegood,91,1,594,male,Negativo,comp,594,test_comp5,testWhitegood,594
4,Whitegood,93,1,436,bm14,NeroMaschio,comp,436,test_comp5,testWhitegood,436
4,Whitegood,95,1,660,pace,Positivo,comp,660,test_comp5,testWhitegood,660
4,Whitegood,97,1,667,wf3,BiancoFem,comp,667,test_comp5,testWhitegood,667
4,Whitegood,99,1,530,piacere,Positivo,comp,530,test_comp5,testWhitegood,530
4,Whitegood,101,1,558,bf14,NeroFemmina,comp,558,test_comp5,testWhitegood,558
4,Whitegood,103,1,609,felicità,Positivo,comp,609,test_comp5,testWhitegood,609
4,Whitegood,105,1,546,wf3,BiancoFem,comp,546,test_comp5,testWhitegood,546
4,Whitegood,107,1,495,amore,Positivo,comp,495,test_comp5,testWhitegood,495
4,Whitegood,109,1,612,bf56,NeroFemmina,comp,612,test_comp5,testWhitegood,612
4,Whitegood,111,1,558,gloria,Positivo,comp,558,test_comp5,testWhitegood,558
4,Whitegood,113,1,601,wm4,BiancoMaschio,comp,601,test_comp5,testWhitegood,601
4,Whitegood,115,1,539,terribile,Negativo,comp,539,test_comp5,testWhitegood,539
4,Whitegood,117,1,503,bm23,NeroMaschio,comp,503,test_comp5,testWhitegood,503
4,Whitegood,119,1,573,dolore,Negativo,comp,573,test_comp5,testWhitegood,573
4,Whitegood,121,1,504,wm1,BiancoMaschio,comp,504,test_comp5,testWhitegood,504
4,Whitegood,123,1,629,buono,Positivo,comp,629,test_comp5,testWhitegood,629
4,Whitebad,2,1,843,fallimento,Negativo,inc,843,prova_inc7,practiceWhitebad,843
4,Whitebad,4,0,707,wf6,BiancoFem,inc,2193,prova_inc7,practiceWhitebad,2193
4,Whitebad,7,1,2164,dolore,Negativo,inc,2164,prova_inc7,practiceWhitebad,2164
4,Whitebad,9,1,768,bf56,NeroFemmina,inc,768,prova_inc7,practiceWhitebad,768
4,Whitebad,11,0,875,felicità,Positivo,inc,1507,prova_inc7,practiceWhitebad,1507
4,Whitebad,14,0,1136,bf23,NeroFemmina,inc,1843,prova_inc7,practiceWhitebad,1843
4,Whitebad,17,1,1247,buono,Positivo,inc,1247,prova_inc7,practiceWhitebad,1247
4,Whitebad,19,1,903,wm6,BiancoMaschio,inc,903,prova_inc7,practiceWhitebad,903
4,Whitebad,21,1,1125,ridere,Positivo,inc,1125,prova_inc7,practiceWhitebad,1125
4,Whitebad,23,1,1393,bf14,NeroFemmina,inc,1393,prova_inc7,practiceWhitebad,1393
4,Whitebad,25,1,2036,male,Negativo,inc,2036,prova_inc7,practiceWhitebad,2036
4,Whitebad,27,1,949,bm23,NeroMaschio,inc,949,prova_inc7,practiceWhitebad,949
4,Whitebad,29,1,1648,pace,Positivo,inc,1648,prova_inc7,practiceWhitebad,1648
4,Whitebad,31,1,1032,wm1,BiancoMaschio,inc,1032,prova_inc7,practiceWhitebad,1032
4,Whitebad,33,0,849,terribile,Negativo,inc,1279,prova_inc7,practiceWhitebad,1279
4,Whitebad,36,1,2062,wf3,BiancoFem,inc,2062,prova_inc7,practiceWhitebad,2062
4,Whitebad,38,1,1215,amore,Positivo,inc,1215,prova_inc7,practiceWhitebad,1215
4,Whitebad,40,1,1016,wm4,BiancoMaschio,inc,1016,prova_inc7,practiceWhitebad,1016
4,Whitebad,42,1,1513,odio,Negativo,inc,1513,prova_inc7,practiceWhitebad,1513
4,Whitebad,44,1,1766,bm14,NeroMaschio,inc,1766,prova_inc7,practiceWhitebad,1766
4,Whitebad,47,1,1161,wf2,BiancoFem,inc,1161,test_inc7,testWhitebad,1161
4,Whitebad,49,1,565,gloria,Positivo,inc,565,test_inc7,testWhitebad,565
4,Whitebad,51,1,584,wm1,BiancoMaschio,inc,584,test_inc7,testWhitebad,584
4,Whitebad,53,0,1227,orribile,Negativo,inc,1733,test_inc7,testWhitebad,1733
4,Whitebad,56,1,1150,bm56,NeroMaschio,inc,1150,test_inc7,testWhitebad,1150
4,Whitebad,58,1,970,cattivo,Negativo,inc,970,test_inc7,testWhitebad,970
4,Whitebad,60,0,565,bm23,NeroMaschio,inc,995,test_inc7,testWhitebad,995
4,Whitebad,63,0,734,fastidioso,Negativo,inc,1159,test_inc7,testWhitebad,1159
4,Whitebad,66,1,1369,bf23,NeroFemmina,inc,1369,test_inc7,testWhitebad,1369
4,Whitebad,68,0,564,terribile,Negativo,inc,1434,test_inc7,testWhitebad,1434
4,Whitebad,71,1,964,wf3,BiancoFem,inc,964,test_inc7,testWhitebad,964
4,Whitebad,73,0,1223,piacere,Positivo,inc,1710,test_inc7,testWhitebad,1710
4,Whitebad,76,1,1140,bf56,NeroFemmina,inc,1140,test_inc7,testWhitebad,1140
4,Whitebad,78,1,993,male,Negativo,inc,993,test_inc7,testWhitebad,993
4,Whitebad,80,1,930,wf2,BiancoFem,inc,930,test_inc7,testWhitebad,930
4,Whitebad,82,1,887,fastidioso,Negativo,inc,887,test_inc7,testWhitebad,887
4,Whitebad,84,1,1038,wm4,BiancoMaschio,inc,1038,test_inc7,testWhitebad,1038
4,Whitebad,86,1,1118,dolore,Negativo,inc,1118,test_inc7,testWhitebad,1118
4,Whitebad,88,1,555,wf6,BiancoFem,inc,555,test_inc7,testWhitebad,555
4,Whitebad,90,0,791,orribile,Negativo,inc,1710,test_inc7,testWhitebad,1710
4,Whitebad,93,1,1163,wm6,BiancoMaschio,inc,1163,test_inc7,testWhitebad,1163
4,Whitebad,95,1,823,gioia,Positivo,inc,823,test_inc7,testWhitebad,823
4,Whitebad,97,1,912,bm14,NeroMaschio,inc,912,test_inc7,testWhitebad,912
4,Whitebad,99,1,822,pace,Positivo,inc,822,test_inc7,testWhitebad,822
4,Whitebad,101,1,863,bm56,NeroMaschio,inc,863,test_inc7,testWhitebad,863
4,Whitebad,103,1,550,piacere,Positivo,inc,550,test_inc7,testWhitebad,550
4,Whitebad,105,1,746,wm4,BiancoMaschio,inc,746,test_inc7,testWhitebad,746
4,Whitebad,107,1,1230,gloria,Positivo,inc,1230,test_inc7,testWhitebad,1230
4,Whitebad,109,1,1431,bf14,NeroFemmina,inc,1431,test_inc7,testWhitebad,1431
4,Whitebad,111,1,807,cattivo,Negativo,inc,807,test_inc7,testWhitebad,807
4,Whitebad,113,1,729,bf23,NeroFemmina,inc,729,test_inc7,testWhitebad,729
4,Whitebad,115,0,1630,fallimento,Negativo,inc,1971,test_inc7,testWhitebad,1971
4,Whitebad,118,1,1024,bm23,NeroMaschio,inc,1024,test_inc7,testWhitebad,1024
4,Whitebad,120,1,1034,felicità,Positivo,inc,1034,test_inc7,testWhitebad,1034
4,Whitebad,122,1,490,bm14,NeroMaschio,inc,490,test_inc7,testWhitebad,490
4,Whitebad,124,1,520,ridere,Positivo,inc,520,test_inc7,testWhitebad,520
4,Whitebad,126,1,821,wf6,BiancoFem,inc,821,test_inc7,testWhitebad,821
4,Whitebad,128,1,718,buono,Positivo,inc,718,test_inc7,testWhitebad,718
4,Whitebad,130,1,891,wf2,BiancoFem,inc,891,test_inc7,testWhitebad,891
4,Whitebad,132,1,1490,gioia,Positivo,inc,1490,test_inc7,testWhitebad,1490
5,Whitebad,2,1,1420,fallimento,Negativo,inc,1420,prova_inc4,practiceWhitebad,1420
5,Whitebad,4,1,1141,wm4,BiancoMaschio,inc,1141,prova_inc4,practiceWhitebad,1141
5,Whitebad,6,1,689,ridere,Positivo,inc,689,prova_inc4,practiceWhitebad,689
5,Whitebad,8,1,519,bf23,NeroFemmina,inc,519,prova_inc4,practiceWhitebad,519
5,Whitebad,10,0,781,felicità,Positivo,inc,1426,prova_inc4,practiceWhitebad,1426
5,Whitebad,13,1,1021,bm14,NeroMaschio,inc,1021,prova_inc4,practiceWhitebad,1021
5,Whitebad,15,1,726,pace,Positivo,inc,726,prova_inc4,practiceWhitebad,726
5,Whitebad,17,1,690,wf6,BiancoFem,inc,690,prova_inc4,practiceWhitebad,690
5,Whitebad,19,1,1169,cattivo,Negativo,inc,1169,prova_inc4,practiceWhitebad,1169
5,Whitebad,21,1,724,bf14,NeroFemmina,inc,724,prova_inc4,practiceWhitebad,724
5,Whitebad,23,0,817,terribile,Negativo,inc,1241,prova_inc4,practiceWhitebad,1241
5,Whitebad,26,1,1416,wf2,BiancoFem,inc,1416,prova_inc4,practiceWhitebad,1416
5,Whitebad,28,0,993,gloria,Positivo,inc,1634,prova_inc4,practiceWhitebad,1634
5,Whitebad,31,1,897,bm56,NeroMaschio,inc,897,prova_inc4,practiceWhitebad,897
5,Whitebad,33,1,751,buono,Positivo,inc,751,prova_inc4,practiceWhitebad,751
5,Whitebad,35,1,915,bf56,NeroFemmina,inc,915,prova_inc4,practiceWhitebad,915
5,Whitebad,37,0,1096,male,Negativo,inc,1612,prova_inc4,practiceWhitebad,1612
5,Whitebad,40,1,984,wf3,BiancoFem,inc,984,prova_inc4,practiceWhitebad,984
5,Whitebad,42,1,979,piacere,Positivo,inc,979,prova_inc4,practiceWhitebad,979
5,Whitebad,44,0,869,wm6,BiancoMaschio,inc,1527,prova_inc4,practiceWhitebad,1527
5,Whitebad,48,1,633,bm23,NeroMaschio,inc,633,test_inc4,testWhitebad,633
5,Whitebad,50,1,1058,gioia,Positivo,inc,1058,test_inc4,testWhitebad,1058
5,Whitebad,52,1,609,bm14,NeroMaschio,inc,609,test_inc4,testWhitebad,609
5,Whitebad,54,1,803,fastidioso,Negativo,inc,803,test_inc4,testWhitebad,803
5,Whitebad,56,0,772,wm1,BiancoMaschio,inc,1337,test_inc4,testWhitebad,1337
5,Whitebad,59,1,952,dolore,Negativo,inc,952,test_inc4,testWhitebad,952
5,Whitebad,61,1,868,wm1,BiancoMaschio,inc,868,test_inc4,testWhitebad,868
5,Whitebad,63,1,883,amore,Positivo,inc,883,test_inc4,testWhitebad,883
5,Whitebad,65,1,689,bf23,NeroFemmina,inc,689,test_inc4,testWhitebad,689
5,Whitebad,67,1,840,amore,Positivo,inc,840,test_inc4,testWhitebad,840
5,Whitebad,69,1,1312,wf2,BiancoFem,inc,1312,test_inc4,testWhitebad,1312
5,Whitebad,71,1,918,ridere,Positivo,inc,918,test_inc4,testWhitebad,918
5,Whitebad,73,1,635,bm23,NeroMaschio,inc,635,test_inc4,testWhitebad,635
5,Whitebad,75,1,571,pace,Positivo,inc,571,test_inc4,testWhitebad,571
5,Whitebad,77,0,574,wf6,BiancoFem,inc,1157,test_inc4,testWhitebad,1157
5,Whitebad,80,0,1360,felicità,Positivo,inc,1778,test_inc4,testWhitebad,1778
5,Whitebad,83,0,834,wm4,BiancoMaschio,inc,1211,test_inc4,testWhitebad,1211
5,Whitebad,86,1,851,buono,Positivo,inc,851,test_inc4,testWhitebad,851
5,Whitebad,88,1,1242,bf56,NeroFemmina,inc,1242,test_inc4,testWhitebad,1242
5,Whitebad,90,0,1067,odio,Negativo,inc,1611,test_inc4,testWhitebad,1611
5,Whitebad,93,1,675,wf3,BiancoFem,inc,675,test_inc4,testWhitebad,675
5,Whitebad,95,1,738,gioia,Positivo,inc,738,test_inc4,testWhitebad,738
5,Whitebad,97,0,887,wm6,BiancoMaschio,inc,1306,test_inc4,testWhitebad,1306
5,Whitebad,100,1,875,orribile,Negativo,inc,875,test_inc4,testWhitebad,875
5,Whitebad,102,1,993,wm4,BiancoMaschio,inc,993,test_inc4,testWhitebad,993
5,Whitebad,104,1,756,male,Negativo,inc,756,test_inc4,testWhitebad,756
5,Whitebad,106,1,799,bm56,NeroMaschio,inc,799,test_inc4,testWhitebad,799
5,Whitebad,108,1,737,orribile,Negativo,inc,737,test_inc4,testWhitebad,737
5,Whitebad,110,0,869,wm6,BiancoMaschio,inc,1391,test_inc4,testWhitebad,1391
5,Whitebad,113,1,791,terribile,Negativo,inc,791,test_inc4,testWhitebad,791
5,Whitebad,115,1,865,wm1,BiancoMaschio,inc,865,test_inc4,testWhitebad,865
5,Whitebad,117,1,672,fastidioso,Negativo,inc,672,test_inc4,testWhitebad,672
5,Whitebad,119,1,655,bf14,NeroFemmina,inc,655,test_inc4,testWhitebad,655
5,Whitebad,121,1,743,dolore,Negativo,inc,743,test_inc4,testWhitebad,743
5,Whitebad,123,1,666,bm23,NeroMaschio,inc,666,test_inc4,testWhitebad,666
5,Whitebad,125,1,889,fallimento,Negativo,inc,889,test_inc4,testWhitebad,889
5,Whitebad,127,1,711,bf23,NeroFemmina,inc,711,test_inc4,testWhitebad,711
5,Whitebad,129,0,677,odio,Negativo,inc,1303,test_inc4,testWhitebad,1303
5,Whitebad,132,1,1354,bm56,NeroMaschio,inc,1354,test_inc4,testWhitebad,1354
5,Whitebad,134,0,2838,piacere,Positivo,inc,3291,test_inc4,testWhitebad,3291
5,Whitegood,2,1,985,gioia,Positivo,comp,985,prova_comp6,practiceWhitegood,985
5,Whitegood,4,1,611,bm56,NeroMaschio,comp,611,prova_comp6,practiceWhitegood,611
5,Whitegood,6,1,661,dolore,Negativo,comp,661,prova_comp6,practiceWhitegood,661
5,Whitegood,8,1,748,wf6,BiancoFem,comp,748,prova_comp6,practiceWhitegood,748
5,Whitegood,10,0,1039,amore,Positivo,comp,1501,prova_comp6,practiceWhitegood,1501
5,Whitegood,13,1,805,wf3,BiancoFem,comp,805,prova_comp6,practiceWhitegood,805
5,Whitegood,15,1,847,ridere,Positivo,comp,847,prova_comp6,practiceWhitegood,847
5,Whitegood,17,1,591,wf2,BiancoFem,comp,591,prova_comp6,practiceWhitegood,591
5,Whitegood,19,1,833,pace,Positivo,comp,833,prova_comp6,practiceWhitegood,833
5,Whitegood,21,1,625,wm1,BiancoMaschio,comp,625,prova_comp6,practiceWhitegood,625
5,Whitegood,23,1,690,buono,Positivo,comp,690,prova_comp6,practiceWhitegood,690
5,Whitegood,25,1,736,bf23,NeroFemmina,comp,736,prova_comp6,practiceWhitegood,736
5,Whitegood,27,1,1077,odio,Negativo,comp,1077,prova_comp6,practiceWhitegood,1077
5,Whitegood,29,1,1051,wm4,BiancoMaschio,comp,1051,prova_comp6,practiceWhitegood,1051
5,Whitegood,31,1,859,gloria,Positivo,comp,859,prova_comp6,practiceWhitegood,859
5,Whitegood,33,1,562,bf14,NeroFemmina,comp,562,prova_comp6,practiceWhitegood,562
5,Whitegood,35,1,805,orribile,Negativo,comp,805,prova_comp6,practiceWhitegood,805
5,Whitegood,37,1,631,wm6,BiancoMaschio,comp,631,prova_comp6,practiceWhitegood,631
5,Whitegood,39,1,983,fastidioso,Negativo,comp,983,prova_comp6,practiceWhitegood,983
5,Whitegood,41,1,538,bm23,NeroMaschio,comp,538,prova_comp6,practiceWhitegood,538
5,Whitegood,44,1,674,wm4,BiancoMaschio,comp,674,test_comp6,testWhitegood,674
5,Whitegood,46,1,585,felicità,Positivo,comp,585,test_comp6,testWhitegood,585
5,Whitegood,48,1,611,wf3,BiancoFem,comp,611,test_comp6,testWhitegood,611
5,Whitegood,50,1,693,piacere,Positivo,comp,693,test_comp6,testWhitegood,693
5,Whitegood,52,1,634,bf56,NeroFemmina,comp,634,test_comp6,testWhitegood,634
5,Whitegood,54,1,730,cattivo,Negativo,comp,730,test_comp6,testWhitegood,730
5,Whitegood,56,1,567,bm14,NeroMaschio,comp,567,test_comp6,testWhitegood,567
5,Whitegood,58,1,634,buono,Positivo,comp,634,test_comp6,testWhitegood,634
5,Whitegood,60,1,738,bf23,NeroFemmina,comp,738,test_comp6,testWhitegood,738
5,Whitegood,62,1,814,amore,Positivo,comp,814,test_comp6,testWhitegood,814
5,Whitegood,64,1,1111,wf2,BiancoFem,comp,1111,test_comp6,testWhitegood,1111
5,Whitegood,66,1,629,terribile,Negativo,comp,629,test_comp6,testWhitegood,629
5,Whitegood,68,1,693,bf14,NeroFemmina,comp,693,test_comp6,testWhitegood,693
5,Whitegood,70,1,931,pace,Positivo,comp,931,test_comp6,testWhitegood,931
5,Whitegood,72,1,616,bm23,NeroMaschio,comp,616,test_comp6,testWhitegood,616
5,Whitegood,74,1,649,felicità,Positivo,comp,649,test_comp6,testWhitegood,649
5,Whitegood,76,1,728,wm6,BiancoMaschio,comp,728,test_comp6,testWhitegood,728
5,Whitegood,78,1,645,ridere,Positivo,comp,645,test_comp6,testWhitegood,645
5,Whitegood,80,1,597,wm1,BiancoMaschio,comp,597,test_comp6,testWhitegood,597
5,Whitegood,82,0,919,fallimento,Negativo,comp,1489,test_comp6,testWhitegood,1489
5,Whitegood,85,1,748,wf6,BiancoFem,comp,748,test_comp6,testWhitegood,748
5,Whitegood,87,1,600,male,Negativo,comp,600,test_comp6,testWhitegood,600
5,Whitegood,89,1,626,bm14,NeroMaschio,comp,626,test_comp6,testWhitegood,626
5,Whitegood,91,1,2123,dolore,Negativo,comp,2123,test_comp6,testWhitegood,2123
5,Whitegood,93,1,656,wm4,BiancoMaschio,comp,656,test_comp6,testWhitegood,656
5,Whitegood,95,1,504,orribile,Negativo,comp,504,test_comp6,testWhitegood,504
5,Whitegood,97,1,581,wf6,BiancoFem,comp,581,test_comp6,testWhitegood,581
5,Whitegood,99,1,639,male,Negativo,comp,639,test_comp6,testWhitegood,639
5,Whitegood,101,1,584,bf56,NeroFemmina,comp,584,test_comp6,testWhitegood,584
5,Whitegood,103,1,618,gloria,Positivo,comp,618,test_comp6,testWhitegood,618
5,Whitegood,105,1,643,wf3,BiancoFem,comp,643,test_comp6,testWhitegood,643
5,Whitegood,107,1,819,piacere,Positivo,comp,819,test_comp6,testWhitegood,819
5,Whitegood,109,1,524,bm56,NeroMaschio,comp,524,test_comp6,testWhitegood,524
5,Whitegood,111,0,865,fastidioso,Negativo,comp,1343,test_comp6,testWhitegood,1343
5,Whitegood,114,1,532,bm23,NeroMaschio,comp,532,test_comp6,testWhitegood,532
5,Whitegood,116,1,696,fallimento,Negativo,comp,696,test_comp6,testWhitegood,696
5,Whitegood,118,1,678,bm56,NeroMaschio,comp,678,test_comp6,testWhitegood,678
5,Whitegood,120,1,613,odio,Negativo,comp,613,test_comp6,testWhitegood,613
5,Whitegood,122,1,614,bm14,NeroMaschio,comp,614,test_comp6,testWhitegood,614
5,Whitegood,124,1,647,terribile,Negativo,comp,647,test_comp6,testWhitegood,647
6,Whitebad,2,1,664,gioia,Positivo,inc,664,prova_inc5,practiceWhitebad,664
6,Whitebad,4,1,1207,bf56,NeroFemmina,inc,1207,prova_inc5,practiceWhitebad,1207
6,Whitebad,6,1,2657,ridere,Positivo,inc,2657,prova_inc5,practiceWhitebad,2657
6,Whitebad,8,1,1193,bm56,NeroMaschio,inc,1193,prova_inc5,practiceWhitebad,1193
6,Whitebad,10,1,740,gloria,Positivo,inc,740,prova_inc5,practiceWhitebad,740
6,Whitebad,12,1,600,bm14,NeroMaschio,inc,600,prova_inc5,practiceWhitebad,600
6,Whitebad,14,1,666,piacere,Positivo,inc,666,prova_inc5,practiceWhitebad,666
6,Whitebad,16,1,673,wf6,BiancoFem,inc,673,prova_inc5,practiceWhitebad,673
6,Whitebad,18,1,792,pace,Positivo,inc,792,prova_inc5,practiceWhitebad,792
6,Whitebad,20,1,697,wm6,BiancoMaschio,inc,697,prova_inc5,practiceWhitebad,697
6,Whitebad,22,1,711,amore,Positivo,inc,711,prova_inc5,practiceWhitebad,711
6,Whitebad,24,1,788,wm4,BiancoMaschio,inc,788,prova_inc5,practiceWhitebad,788
6,Whitebad,26,1,631,buono,Positivo,inc,631,prova_inc5,practiceWhitebad,631
6,Whitebad,28,1,719,bm23,NeroMaschio,inc,719,prova_inc5,practiceWhitebad,719
6,Whitebad,30,1,804,dolore,Negativo,inc,804,prova_inc5,practiceWhitebad,804
6,Whitebad,32,1,734,wf2,BiancoFem,inc,734,prova_inc5,practiceWhitebad,734
6,Whitebad,34,1,714,terribile,Negativo,inc,714,prova_inc5,practiceWhitebad,714
6,Whitebad,36,1,583,wf3,BiancoFem,inc,583,prova_inc5,practiceWhitebad,583
6,Whitebad,38,1,609,male,Negativo,inc,609,prova_inc5,practiceWhitebad,609
6,Whitebad,40,1,602,bf14,NeroFemmina,inc,602,prova_inc5,practiceWhitebad,602
6,Whitebad,43,1,718,bf23,NeroFemmina,inc,718,test_inc5,testWhitebad,718
6,Whitebad,45,0,1475,cattivo,Negativo,inc,2587,test_inc5,testWhitebad,2587
6,Whitebad,48,1,597,wm1,BiancoMaschio,inc,597,test_inc5,testWhitebad,597
6,Whitebad,50,1,687,felicità,Positivo,inc,687,test_inc5,testWhitebad,687
6,Whitebad,52,1,1285,bf56,NeroFemmina,inc,1285,test_inc5,testWhitebad,1285
6,Whitebad,54,1,708,odio,Negativo,inc,708,test_inc5,testWhitebad,708
6,Whitebad,56,1,617,bf23,NeroFemmina,inc,617,test_inc5,testWhitebad,617
6,Whitebad,58,1,1754,pace,Positivo,inc,1754,test_inc5,testWhitebad,1754
6,Whitebad,60,1,694,wf2,BiancoFem,inc,694,test_inc5,testWhitebad,694
6,Whitebad,62,1,788,orribile,Negativo,inc,788,test_inc5,testWhitebad,788
6,Whitebad,64,1,630,bf14,NeroFemmina,inc,630,test_inc5,testWhitebad,630
6,Whitebad,66,1,1951,amore,Positivo,inc,1951,test_inc5,testWhitebad,1951
6,Whitebad,68,1,779,wf3,BiancoFem,inc,779,test_inc5,testWhitebad,779
6,Whitebad,70,1,814,fastidioso,Negativo,inc,814,test_inc5,testWhitebad,814
6,Whitebad,72,1,575,wm1,BiancoMaschio,inc,575,test_inc5,testWhitebad,575
6,Whitebad,74,1,634,fallimento,Negativo,inc,634,test_inc5,testWhitebad,634
6,Whitebad,76,1,587,bm23,NeroMaschio,inc,587,test_inc5,testWhitebad,587
6,Whitebad,78,1,685,dolore,Negativo,inc,685,test_inc5,testWhitebad,685
6,Whitebad,80,1,739,bm14,NeroMaschio,inc,739,test_inc5,testWhitebad,739
6,Whitebad,82,1,543,gloria,Positivo,inc,543,test_inc5,testWhitebad,543
6,Whitebad,84,1,683,wm6,BiancoMaschio,inc,683,test_inc5,testWhitebad,683
6,Whitebad,86,1,641,orribile,Negativo,inc,641,test_inc5,testWhitebad,641
6,Whitebad,88,1,569,wf6,BiancoFem,inc,569,test_inc5,testWhitebad,569
6,Whitebad,90,1,588,odio,Negativo,inc,588,test_inc5,testWhitebad,588
6,Whitebad,92,1,591,wm4,BiancoMaschio,inc,591,test_inc5,testWhitebad,591
6,Whitebad,94,1,553,fallimento,Negativo,inc,553,test_inc5,testWhitebad,553
6,Whitebad,96,1,564,bm56,NeroMaschio,inc,564,test_inc5,testWhitebad,564
6,Whitebad,98,1,536,gioia,Positivo,inc,536,test_inc5,testWhitebad,536
6,Whitebad,100,1,588,bm56,NeroMaschio,inc,588,test_inc5,testWhitebad,588
6,Whitebad,102,1,622,cattivo,Negativo,inc,622,test_inc5,testWhitebad,622
6,Whitebad,104,1,631,wf3,BiancoFem,inc,631,test_inc5,testWhitebad,631
6,Whitebad,106,1,647,terribile,Negativo,inc,647,test_inc5,testWhitebad,647
6,Whitebad,108,1,903,bf56,NeroFemmina,inc,903,test_inc5,testWhitebad,903
6,Whitebad,110,1,565,buono,Positivo,inc,565,test_inc5,testWhitebad,565
6,Whitebad,112,1,664,wf2,BiancoFem,inc,664,test_inc5,testWhitebad,664
6,Whitebad,114,1,559,male,Negativo,inc,559,test_inc5,testWhitebad,559
6,Whitebad,116,1,562,bm14,NeroMaschio,inc,562,test_inc5,testWhitebad,562
6,Whitebad,118,1,1342,ridere,Positivo,inc,1342,test_inc5,testWhitebad,1342
6,Whitebad,120,1,642,wm4,BiancoMaschio,inc,642,test_inc5,testWhitebad,642
6,Whitebad,122,1,690,piacere,Positivo,inc,690,test_inc5,testWhitebad,690
6,Whitegood,2,1,1577,fastidioso,Negativo,comp,1577,prova_comp7,practiceWhitegood,1577
6,Whitegood,4,1,603,wf6,BiancoFem,comp,603,prova_comp7,practiceWhitegood,603
6,Whitegood,6,1,1077,odio,Negativo,comp,1077,prova_comp7,practiceWhitegood,1077
6,Whitegood,8,1,667,wm6,BiancoMaschio,comp,667,prova_comp7,practiceWhitegood,667
6,Whitegood,10,1,658,buono,Positivo,comp,658,prova_comp7,practiceWhitegood,658
6,Whitegood,12,1,489,wf3,BiancoFem,comp,489,prova_comp7,practiceWhitegood,489
6,Whitegood,14,1,519,pace,Positivo,comp,519,prova_comp7,practiceWhitegood,519
6,Whitegood,16,1,492,wm1,BiancoMaschio,comp,492,prova_comp7,practiceWhitegood,492
6,Whitegood,18,1,554,fallimento,Negativo,comp,554,prova_comp7,practiceWhitegood,554
6,Whitegood,20,1,550,bf14,NeroFemmina,comp,550,prova_comp7,practiceWhitegood,550
6,Whitegood,22,1,634,ridere,Positivo,comp,634,prova_comp7,practiceWhitegood,634
6,Whitegood,24,1,482,wm4,BiancoMaschio,comp,482,prova_comp7,practiceWhitegood,482
6,Whitegood,26,1,560,amore,Positivo,comp,560,prova_comp7,practiceWhitegood,560
6,Whitegood,28,1,467,wf2,BiancoFem,comp,467,prova_comp7,practiceWhitegood,467
6,Whitegood,30,1,458,gioia,Positivo,comp,458,prova_comp7,practiceWhitegood,458
6,Whitegood,32,1,537,bm56,NeroMaschio,comp,537,prova_comp7,practiceWhitegood,537
6,Whitegood,34,1,430,male,Negativo,comp,430,prova_comp7,practiceWhitegood,430
6,Whitegood,36,1,470,wm6,BiancoMaschio,comp,470,prova_comp7,practiceWhitegood,470
6,Whitegood,38,1,653,cattivo,Negativo,comp,653,prova_comp7,practiceWhitegood,653
6,Whitegood,40,1,444,bf23,NeroFemmina,comp,444,prova_comp7,practiceWhitegood,444
6,Whitegood,43,1,575,bm14,NeroMaschio,comp,575,test_comp7,testWhitegood,575
6,Whitegood,45,1,418,terribile,Negativo,comp,418,test_comp7,testWhitegood,418
6,Whitegood,47,1,546,wm4,BiancoMaschio,comp,546,test_comp7,testWhitegood,546
6,Whitegood,49,1,479,piacere,Positivo,comp,479,test_comp7,testWhitegood,479
6,Whitegood,51,1,493,wf3,BiancoFem,comp,493,test_comp7,testWhitegood,493
6,Whitegood,53,1,483,felicità,Positivo,comp,483,test_comp7,testWhitegood,483
6,Whitegood,55,1,553,bf56,NeroFemmina,comp,553,test_comp7,testWhitegood,553
6,Whitegood,57,1,429,orribile,Negativo,comp,429,test_comp7,testWhitegood,429
6,Whitegood,59,1,469,bm23,NeroMaschio,comp,469,test_comp7,testWhitegood,469
6,Whitegood,61,0,716,dolore,Negativo,comp,1395,test_comp7,testWhitegood,1395
6,Whitegood,64,1,445,bf14,NeroFemmina,comp,445,test_comp7,testWhitegood,445
6,Whitegood,66,1,581,gloria,Positivo,comp,581,test_comp7,testWhitegood,581
6,Whitegood,68,1,600,bm56,NeroMaschio,comp,600,test_comp7,testWhitegood,600
6,Whitegood,70,1,561,gloria,Positivo,comp,561,test_comp7,testWhitegood,561
6,Whitegood,72,1,588,wf2,BiancoFem,comp,588,test_comp7,testWhitegood,588
6,Whitegood,74,1,598,ridere,Positivo,comp,598,test_comp7,testWhitegood,598
6,Whitegood,76,1,416,wf6,BiancoFem,comp,416,test_comp7,testWhitegood,416
6,Whitegood,78,1,561,fastidioso,Negativo,comp,561,test_comp7,testWhitegood,561
6,Whitegood,80,1,452,bm14,NeroMaschio,comp,452,test_comp7,testWhitegood,452
6,Whitegood,82,1,515,fallimento,Negativo,comp,515,test_comp7,testWhitegood,515
6,Whitegood,84,1,648,wm1,BiancoMaschio,comp,648,test_comp7,testWhitegood,648
6,Whitegood,86,1,640,male,Negativo,comp,640,test_comp7,testWhitegood,640
6,Whitegood,88,1,560,bf23,NeroFemmina,comp,560,test_comp7,testWhitegood,560
6,Whitegood,90,1,508,terribile,Negativo,comp,508,test_comp7,testWhitegood,508
6,Whitegood,92,1,497,bm23,NeroMaschio,comp,497,test_comp7,testWhitegood,497
6,Whitegood,94,1,567,piacere,Positivo,comp,567,test_comp7,testWhitegood,567
6,Whitegood,96,1,434,wm1,BiancoMaschio,comp,434,test_comp7,testWhitegood,434
6,Whitegood,98,1,498,gioia,Positivo,comp,498,test_comp7,testWhitegood,498
6,Whitegood,100,1,560,bf56,NeroFemmina,comp,560,test_comp7,testWhitegood,560
6,Whitegood,102,1,540,dolore,Negativo,comp,540,test_comp7,testWhitegood,540
6,Whitegood,104,1,512,bm56,NeroMaschio,comp,512,test_comp7,testWhitegood,512
6,Whitegood,106,1,541,felicità,Positivo,comp,541,test_comp7,testWhitegood,541
6,Whitegood,108,0,473,bf56,NeroFemmina,comp,1095,test_comp7,testWhitegood,1095
6,Whitegood,111,1,687,pace,Positivo,comp,687,test_comp7,testWhitegood,687
6,Whitegood,113,1,541,wm4,BiancoMaschio,comp,541,test_comp7,testWhitegood,541
6,Whitegood,115,1,633,odio,Negativo,comp,633,test_comp7,testWhitegood,633
6,Whitegood,117,1,609,wm6,BiancoMaschio,comp,609,test_comp7,testWhitegood,609
6,Whitegood,119,1,571,cattivo,Negativo,comp,571,test_comp7,testWhitegood,571
6,Whitegood,121,1,542,bf14,NeroFemmina,comp,542,test_comp7,testWhitegood,542
6,Whitegood,123,1,570,amore,Positivo,comp,570,test_comp7,testWhitegood,570
7,Whitebad,2,1,1286,piacere,Positivo,inc,1286,prova_inc4,practiceWhitebad,1286
7,Whitebad,4,1,989,wm6,BiancoMaschio,inc,989,prova_inc4,practiceWhitebad,989
7,Whitebad,6,1,1271,buono,Positivo,inc,1271,prova_inc4,practiceWhitebad,1271
7,Whitebad,8,0,1214,wf2,BiancoFem,inc,1860,prova_inc4,practiceWhitebad,1860
7,Whitebad,11,1,1237,ridere,Positivo,inc,1237,prova_inc4,practiceWhitebad,1237
7,Whitebad,13,1,1110,bm23,NeroMaschio,inc,1110,prova_inc4,practiceWhitebad,1110
7,Whitebad,15,1,668,male,Negativo,inc,668,prova_inc4,practiceWhitebad,668
7,Whitebad,17,1,1018,bf14,NeroFemmina,inc,1018,prova_inc4,practiceWhitebad,1018
7,Whitebad,19,1,604,felicità,Positivo,inc,604,prova_inc4,practiceWhitebad,604
7,Whitebad,21,1,525,bm56,NeroMaschio,inc,525,prova_inc4,practiceWhitebad,525
7,Whitebad,23,1,626,terribile,Negativo,inc,626,prova_inc4,practiceWhitebad,626
7,Whitebad,25,1,498,wm1,BiancoMaschio,inc,498,prova_inc4,practiceWhitebad,498
7,Whitebad,27,0,600,pace,Positivo,inc,1080,prova_inc4,practiceWhitebad,1080
7,Whitebad,30,1,1158,wf6,BiancoFem,inc,1158,prova_inc4,practiceWhitebad,1158
7,Whitebad,32,1,1625,gloria,Positivo,inc,1625,prova_inc4,practiceWhitebad,1625
7,Whitebad,34,1,434,bf56,NeroFemmina,inc,434,prova_inc4,practiceWhitebad,434
7,Whitebad,36,1,770,odio,Negativo,inc,770,prova_inc4,practiceWhitebad,770
7,Whitebad,38,1,669,bm14,NeroMaschio,inc,669,prova_inc4,practiceWhitebad,669
7,Whitebad,40,1,892,amore,Positivo,inc,892,prova_inc4,practiceWhitebad,892
7,Whitebad,42,1,618,wm4,BiancoMaschio,inc,618,prova_inc4,practiceWhitebad,618
7,Whitebad,45,1,766,wf3,BiancoFem,inc,766,test_inc4,testWhitebad,766
7,Whitebad,47,1,921,gioia,Positivo,inc,921,test_inc4,testWhitebad,921
7,Whitebad,49,1,526,bf23,NeroFemmina,inc,526,test_inc4,testWhitebad,526
7,Whitebad,51,1,739,fallimento,Negativo,inc,739,test_inc4,testWhitebad,739
7,Whitebad,53,1,503,wm6,BiancoMaschio,inc,503,test_inc4,testWhitebad,503
7,Whitebad,55,1,685,gioia,Positivo,inc,685,test_inc4,testWhitebad,685
7,Whitebad,57,1,499,bf23,NeroFemmina,inc,499,test_inc4,testWhitebad,499
7,Whitebad,59,1,641,gloria,Positivo,inc,641,test_inc4,testWhitebad,641
7,Whitebad,61,1,537,wm4,BiancoMaschio,inc,537,test_inc4,testWhitebad,537
7,Whitebad,63,1,741,pace,Positivo,inc,741,test_inc4,testWhitebad,741
7,Whitebad,65,1,577,bf14,NeroFemmina,inc,577,test_inc4,testWhitebad,577
7,Whitebad,67,1,764,felicità,Positivo,inc,764,test_inc4,testWhitebad,764
7,Whitebad,69,1,719,bm23,NeroMaschio,inc,719,test_inc4,testWhitebad,719
7,Whitebad,71,1,572,fastidioso,Negativo,inc,572,test_inc4,testWhitebad,572
7,Whitebad,73,1,775,bm56,NeroMaschio,inc,775,test_inc4,testWhitebad,775
7,Whitebad,75,1,906,dolore,Negativo,inc,906,test_inc4,testWhitebad,906
7,Whitebad,77,1,392,wf3,BiancoFem,inc,392,test_inc4,testWhitebad,392
7,Whitebad,79,1,690,orribile,Negativo,inc,690,test_inc4,testWhitebad,690
7,Whitebad,81,1,488,bf56,NeroFemmina,inc,488,test_inc4,testWhitebad,488
7,Whitebad,83,1,1254,cattivo,Negativo,inc,1254,test_inc4,testWhitebad,1254
7,Whitebad,85,1,702,bm14,NeroMaschio,inc,702,test_inc4,testWhitebad,702
7,Whitebad,87,0,652,buono,Positivo,inc,1062,test_inc4,testWhitebad,1062
7,Whitebad,90,1,1922,wf6,BiancoFem,inc,1922,test_inc4,testWhitebad,1922
7,Whitebad,92,1,1872,orribile,Negativo,inc,1872,test_inc4,testWhitebad,1872
7,Whitebad,94,1,655,wf2,BiancoFem,inc,655,test_inc4,testWhitebad,655
7,Whitebad,96,1,759,odio,Negativo,inc,759,test_inc4,testWhitebad,759
7,Whitebad,98,1,458,bf56,NeroFemmina,inc,458,test_inc4,testWhitebad,458
7,Whitebad,100,1,529,fallimento,Negativo,inc,529,test_inc4,testWhitebad,529
7,Whitebad,102,1,525,bm14,NeroMaschio,inc,525,test_inc4,testWhitebad,525
7,Whitebad,104,1,906,dolore,Negativo,inc,906,test_inc4,testWhitebad,906
7,Whitebad,106,1,720,wm1,BiancoMaschio,inc,720,test_inc4,testWhitebad,720
7,Whitebad,108,1,589,fastidioso,Negativo,inc,589,test_inc4,testWhitebad,589
7,Whitebad,110,1,1463,wm6,BiancoMaschio,inc,1463,test_inc4,testWhitebad,1463
7,Whitebad,112,1,535,cattivo,Negativo,inc,535,test_inc4,testWhitebad,535
7,Whitebad,114,1,627,bm23,NeroMaschio,inc,627,test_inc4,testWhitebad,627
7,Whitebad,116,1,460,amore,Positivo,inc,460,test_inc4,testWhitebad,460
7,Whitebad,118,1,611,wm4,BiancoMaschio,inc,611,test_inc4,testWhitebad,611
7,Whitebad,120,1,781,male,Negativo,inc,781,test_inc4,testWhitebad,781
7,Whitebad,122,1,471,wm1,BiancoMaschio,inc,471,test_inc4,testWhitebad,471
7,Whitebad,124,0,614,ridere,Positivo,inc,939,test_inc4,testWhitebad,939
7,Whitegood,2,1,1445,fallimento,Negativo,comp,1445,prova_comp6,practiceWhitegood,1445
7,Whitegood,4,1,965,bf14,NeroFemmina,comp,965,prova_comp6,practiceWhitegood,965
7,Whitegood,6,1,816,buono,Positivo,comp,816,prova_comp6,practiceWhitegood,816
7,Whitegood,8,1,449,wf2,BiancoFem,comp,449,prova_comp6,practiceWhitegood,449
7,Whitegood,10,1,545,piacere,Positivo,comp,545,prova_comp6,practiceWhitegood,545
7,Whitegood,12,1,516,wf3,BiancoFem,comp,516,prova_comp6,practiceWhitegood,516
7,Whitegood,14,1,745,cattivo,Negativo,comp,745,prova_comp6,practiceWhitegood,745
7,Whitegood,16,1,596,wf6,BiancoFem,comp,596,prova_comp6,practiceWhitegood,596
7,Whitegood,18,1,743,male,Negativo,comp,743,prova_comp6,practiceWhitegood,743
7,Whitegood,20,1,554,wm4,BiancoMaschio,comp,554,prova_comp6,practiceWhitegood,554
7,Whitegood,22,1,1286,gloria,Positivo,comp,1286,prova_comp6,practiceWhitegood,1286
7,Whitegood,24,1,500,bm23,NeroMaschio,comp,500,prova_comp6,practiceWhitegood,500
7,Whitegood,26,1,698,fastidioso,Negativo,comp,698,prova_comp6,practiceWhitegood,698
7,Whitegood,28,1,520,wm6,BiancoMaschio,comp,520,prova_comp6,practiceWhitegood,520
7,Whitegood,30,1,493,amore,Positivo,comp,493,prova_comp6,practiceWhitegood,493
7,Whitegood,32,1,682,bm56,NeroMaschio,comp,682,prova_comp6,practiceWhitegood,682
7,Whitegood,34,1,600,odio,Negativo,comp,600,prova_comp6,practiceWhitegood,600
7,Whitegood,36,1,546,wm1,BiancoMaschio,comp,546,prova_comp6,practiceWhitegood,546
7,Whitegood,38,1,1326,dolore,Negativo,comp,1326,prova_comp6,practiceWhitegood,1326
7,Whitegood,40,1,475,bf23,NeroFemmina,comp,475,prova_comp6,practiceWhitegood,475
7,Whitegood,43,1,377,wf3,BiancoFem,comp,377,test_comp6,testWhitegood,377
7,Whitegood,45,1,460,ridere,Positivo,comp,460,test_comp6,testWhitegood,460
7,Whitegood,47,1,602,bf56,NeroFemmina,comp,602,test_comp6,testWhitegood,602
7,Whitegood,49,1,484,terribile,Negativo,comp,484,test_comp6,testWhitegood,484
7,Whitegood,51,1,474,wf2,BiancoFem,comp,474,test_comp6,testWhitegood,474
7,Whitegood,53,1,1033,orribile,Negativo,comp,1033,test_comp6,testWhitegood,1033
7,Whitegood,55,1,506,bm14,NeroMaschio,comp,506,test_comp6,testWhitegood,506
7,Whitegood,57,1,543,felicità,Positivo,comp,543,test_comp6,testWhitegood,543
7,Whitegood,59,1,611,wf6,BiancoFem,comp,611,test_comp6,testWhitegood,611
7,Whitegood,61,0,548,pace,Positivo,comp,906,test_comp6,testWhitegood,906
7,Whitegood,64,1,625,wm6,BiancoMaschio,comp,625,test_comp6,testWhitegood,625
7,Whitegood,66,1,778,male,Negativo,comp,778,test_comp6,testWhitegood,778
7,Whitegood,68,1,413,bm56,NeroMaschio,comp,413,test_comp6,testWhitegood,413
7,Whitegood,70,1,486,gioia,Positivo,comp,486,test_comp6,testWhitegood,486
7,Whitegood,72,1,556,bm23,NeroMaschio,comp,556,test_comp6,testWhitegood,556
7,Whitegood,74,1,920,cattivo,Negativo,comp,920,test_comp6,testWhitegood,920
7,Whitegood,76,1,501,wm4,BiancoMaschio,comp,501,test_comp6,testWhitegood,501
7,Whitegood,78,1,411,felicità,Positivo,comp,411,test_comp6,testWhitegood,411
7,Whitegood,80,1,403,wm1,BiancoMaschio,comp,403,test_comp6,testWhitegood,403
7,Whitegood,82,1,413,piacere,Positivo,comp,413,test_comp6,testWhitegood,413
7,Whitegood,84,1,638,bf14,NeroFemmina,comp,638,test_comp6,testWhitegood,638
7,Whitegood,86,1,510,dolore,Negativo,comp,510,test_comp6,testWhitegood,510
7,Whitegood,88,1,411,bf23,NeroFemmina,comp,411,test_comp6,testWhitegood,411
7,Whitegood,90,1,508,gioia,Positivo,comp,508,test_comp6,testWhitegood,508
7,Whitegood,92,1,633,bf56,NeroFemmina,comp,633,test_comp6,testWhitegood,633
7,Whitegood,94,1,546,odio,Negativo,comp,546,test_comp6,testWhitegood,546
7,Whitegood,96,1,461,bm14,NeroMaschio,comp,461,test_comp6,testWhitegood,461
7,Whitegood,98,1,589,fallimento,Negativo,comp,589,test_comp6,testWhitegood,589
7,Whitegood,100,1,559,wm1,BiancoMaschio,comp,559,test_comp6,testWhitegood,559
7,Whitegood,102,1,459,ridere,Positivo,comp,459,test_comp6,testWhitegood,459
7,Whitegood,104,1,465,wm4,BiancoMaschio,comp,465,test_comp6,testWhitegood,465
7,Whitegood,106,1,496,amore,Positivo,comp,496,test_comp6,testWhitegood,496
7,Whitegood,108,1,550,bf14,NeroFemmina,comp,550,test_comp6,testWhitegood,550
7,Whitegood,110,1,577,fastidioso,Negativo,comp,577,test_comp6,testWhitegood,577
7,Whitegood,112,0,500,bm56,NeroMaschio,comp,931,test_comp6,testWhitegood,931
7,Whitegood,115,1,1639,buono,Positivo,comp,1639,test_comp6,testWhitegood,1639
7,Whitegood,117,1,792,bf23,NeroFemmina,comp,792,test_comp6,testWhitegood,792
7,Whitegood,119,1,954,pace,Positivo,comp,954,test_comp6,testWhitegood,954
7,Whitegood,121,1,478,wf3,BiancoFem,comp,478,test_comp6,testWhitegood,478
7,Whitegood,123,1,589,terribile,Negativo,comp,589,test_comp6,testWhitegood,589
8,Whitebad,2,1,1463,gioia,Positivo,inc,1463,prova_inc5,practiceWhitebad,1463
8,Whitebad,4,1,1326,bf14,NeroFemmina,inc,1326,prova_inc5,practiceWhitebad,1326
8,Whitebad,6,1,819,ridere,Positivo,inc,819,prova_inc5,practiceWhitebad,819
8,Whitebad,8,1,732,bm56,NeroMaschio,inc,732,prova_inc5,practiceWhitebad,732
8,Whitebad,10,1,568,amore,Positivo,inc,568,prova_inc5,practiceWhitebad,568
8,Whitebad,12,1,667,wm6,BiancoMaschio,inc,667,prova_inc5,practiceWhitebad,667
8,Whitebad,14,1,898,pace,Positivo,inc,898,prova_inc5,practiceWhitebad,898
8,Whitebad,16,1,799,wm1,BiancoMaschio,inc,799,prova_inc5,practiceWhitebad,799
8,Whitebad,18,1,745,buono,Positivo,inc,745,prova_inc5,practiceWhitebad,745
8,Whitebad,20,1,693,bm14,NeroMaschio,inc,693,prova_inc5,practiceWhitebad,693
8,Whitebad,22,1,699,piacere,Positivo,inc,699,prova_inc5,practiceWhitebad,699
8,Whitebad,24,1,505,bf23,NeroFemmina,inc,505,prova_inc5,practiceWhitebad,505
8,Whitebad,26,1,590,felicità,Positivo,inc,590,prova_inc5,practiceWhitebad,590
8,Whitebad,28,1,665,bm23,NeroMaschio,inc,665,prova_inc5,practiceWhitebad,665
8,Whitebad,30,1,680,male,Negativo,inc,680,prova_inc5,practiceWhitebad,680
8,Whitebad,32,1,510,bf56,NeroFemmina,inc,510,prova_inc5,practiceWhitebad,510
8,Whitebad,34,1,883,gloria,Positivo,inc,883,prova_inc5,practiceWhitebad,883
8,Whitebad,36,1,1602,wf3,BiancoFem,inc,1602,prova_inc5,practiceWhitebad,1602
8,Whitebad,38,0,796,fastidioso,Negativo,inc,2904,prova_inc5,practiceWhitebad,2904
8,Whitebad,41,1,657,wm4,BiancoMaschio,inc,657,prova_inc5,practiceWhitebad,657
8,Whitebad,44,1,1610,bf14,NeroFemmina,inc,1610,test_inc5,testWhitebad,1610
8,Whitebad,46,0,612,terribile,Negativo,inc,2048,test_inc5,testWhitebad,2048
8,Whitebad,49,1,708,bm56,NeroMaschio,inc,708,test_inc5,testWhitebad,708
8,Whitebad,51,1,633,odio,Negativo,inc,633,test_inc5,testWhitebad,633
8,Whitebad,53,1,1081,wf2,BiancoFem,inc,1081,test_inc5,testWhitebad,1081
8,Whitebad,55,0,744,ridere,Positivo,inc,2258,test_inc5,testWhitebad,2258
8,Whitebad,58,1,967,bf23,NeroFemmina,inc,967,test_inc5,testWhitebad,967
8,Whitebad,60,1,587,orribile,Negativo,inc,587,test_inc5,testWhitebad,587
8,Whitebad,62,1,637,bm23,NeroMaschio,inc,637,test_inc5,testWhitebad,637
8,Whitebad,64,1,773,cattivo,Negativo,inc,773,test_inc5,testWhitebad,773
8,Whitebad,66,0,896,wf6,BiancoFem,inc,2748,test_inc5,testWhitebad,2748
8,Whitebad,69,1,1324,fallimento,Negativo,inc,1324,test_inc5,testWhitebad,1324
8,Whitebad,71,1,625,bf56,NeroFemmina,inc,625,test_inc5,testWhitebad,625
8,Whitebad,73,1,1026,dolore,Negativo,inc,1026,test_inc5,testWhitebad,1026
8,Whitebad,75,1,1130,wf6,BiancoFem,inc,1130,test_inc5,testWhitebad,1130
8,Whitebad,77,0,599,male,Negativo,inc,2206,test_inc5,testWhitebad,2206
8,Whitebad,80,1,1224,wf3,BiancoFem,inc,1224,test_inc5,testWhitebad,1224
8,Whitebad,82,1,889,fallimento,Negativo,inc,889,test_inc5,testWhitebad,889
8,Whitebad,84,1,567,wm1,BiancoMaschio,inc,567,test_inc5,testWhitebad,567
8,Whitebad,86,0,602,felicità,Positivo,inc,1692,test_inc5,testWhitebad,1692
8,Whitebad,89,1,816,bm14,NeroMaschio,inc,816,test_inc5,testWhitebad,816
8,Whitebad,91,1,865,pace,Positivo,inc,865,test_inc5,testWhitebad,865
8,Whitebad,93,1,799,wm6,BiancoMaschio,inc,799,test_inc5,testWhitebad,799
8,Whitebad,95,1,833,odio,Negativo,inc,833,test_inc5,testWhitebad,833
8,Whitebad,97,1,689,wm4,BiancoMaschio,inc,689,test_inc5,testWhitebad,689
8,Whitebad,99,1,904,fastidioso,Negativo,inc,904,test_inc5,testWhitebad,904
8,Whitebad,101,1,725,bm23,NeroMaschio,inc,725,test_inc5,testWhitebad,725
8,Whitebad,103,1,715,piacere,Positivo,inc,715,test_inc5,testWhitebad,715
8,Whitebad,105,1,663,wf2,BiancoFem,inc,663,test_inc5,testWhitebad,663
8,Whitebad,107,1,1175,gloria,Positivo,inc,1175,test_inc5,testWhitebad,1175
8,Whitebad,109,1,1081,wm6,BiancoMaschio,inc,1081,test_inc5,testWhitebad,1081
8,Whitebad,111,0,712,dolore,Negativo,inc,2700,test_inc5,testWhitebad,2700
8,Whitebad,114,1,773,bf23,NeroFemmina,inc,773,test_inc5,testWhitebad,773
8,Whitebad,116,1,1201,orribile,Negativo,inc,1201,test_inc5,testWhitebad,1201
8,Whitebad,118,1,730,wf6,BiancoFem,inc,730,test_inc5,testWhitebad,730
8,Whitebad,120,1,639,cattivo,Negativo,inc,639,test_inc5,testWhitebad,639
8,Whitebad,122,1,623,bf56,NeroFemmina,inc,623,test_inc5,testWhitebad,623
8,Whitebad,124,1,1064,buono,Positivo,inc,1064,test_inc5,testWhitebad,1064
8,Whitebad,126,1,679,wm4,BiancoMaschio,inc,679,test_inc5,testWhitebad,679
8,Whitebad,128,1,1166,amore,Positivo,inc,1166,test_inc5,testWhitebad,1166
8,Whitegood,2,1,2915,gioia,Positivo,comp,2915,prova_comp7,practiceWhitegood,2915
8,Whitegood,4,1,745,bf14,NeroFemmina,comp,745,prova_comp7,practiceWhitegood,745
8,Whitegood,6,1,782,fastidioso,Negativo,comp,782,prova_comp7,practiceWhitegood,782
8,Whitegood,8,1,567,bf23,NeroFemmina,comp,567,prova_comp7,practiceWhitegood,567
8,Whitegood,10,1,491,orribile,Negativo,comp,491,prova_comp7,practiceWhitegood,491
8,Whitegood,12,1,592,wm4,BiancoMaschio,comp,592,prova_comp7,practiceWhitegood,592
8,Whitegood,14,1,619,pace,Positivo,comp,619,prova_comp7,practiceWhitegood,619
8,Whitegood,16,1,580,bm23,NeroMaschio,comp,580,prova_comp7,practiceWhitegood,580
8,Whitegood,18,1,607,fallimento,Negativo,comp,607,prova_comp7,practiceWhitegood,607
8,Whitegood,20,1,561,wm6,BiancoMaschio,comp,561,prova_comp7,practiceWhitegood,561
8,Whitegood,22,1,660,felicità,Positivo,comp,660,prova_comp7,practiceWhitegood,660
8,Whitegood,24,1,539,wf2,BiancoFem,comp,539,prova_comp7,practiceWhitegood,539
8,Whitegood,26,1,535,piacere,Positivo,comp,535,prova_comp7,practiceWhitegood,535
8,Whitegood,28,1,563,bm56,NeroMaschio,comp,563,prova_comp7,practiceWhitegood,563
8,Whitegood,30,1,759,buono,Positivo,comp,759,prova_comp7,practiceWhitegood,759
8,Whitegood,32,1,602,wm1,BiancoMaschio,comp,602,prova_comp7,practiceWhitegood,602
8,Whitegood,34,1,699,dolore,Negativo,comp,699,prova_comp7,practiceWhitegood,699
8,Whitegood,36,1,625,bf56,NeroFemmina,comp,625,prova_comp7,practiceWhitegood,625
8,Whitegood,38,1,618,terribile,Negativo,comp,618,prova_comp7,practiceWhitegood,618
8,Whitegood,40,1,459,bm14,NeroMaschio,comp,459,prova_comp7,practiceWhitegood,459
8,Whitegood,43,1,1395,wf3,BiancoFem,comp,1395,test_comp7,testWhitegood,1395
8,Whitegood,45,1,694,male,Negativo,comp,694,test_comp7,testWhitegood,694
8,Whitegood,47,1,443,bm56,NeroMaschio,comp,443,test_comp7,testWhitegood,443
8,Whitegood,49,1,508,cattivo,Negativo,comp,508,test_comp7,testWhitegood,508
8,Whitegood,51,1,465,wf6,BiancoFem,comp,465,test_comp7,testWhitegood,465
8,Whitegood,53,1,720,ridere,Positivo,comp,720,test_comp7,testWhitegood,720
8,Whitegood,55,1,437,bf56,NeroFemmina,comp,437,test_comp7,testWhitegood,437
8,Whitegood,57,1,765,odio,Negativo,comp,765,test_comp7,testWhitegood,765
8,Whitegood,59,1,473,wm6,BiancoMaschio,comp,473,test_comp7,testWhitegood,473
8,Whitegood,61,1,831,odio,Negativo,comp,831,test_comp7,testWhitegood,831
8,Whitegood,63,1,631,bf23,NeroFemmina,comp,631,test_comp7,testWhitegood,631
8,Whitegood,65,1,624,gloria,Positivo,comp,624,test_comp7,testWhitegood,624
8,Whitegood,67,1,617,bf14,NeroFemmina,comp,617,test_comp7,testWhitegood,617
8,Whitegood,69,1,666,orribile,Negativo,comp,666,test_comp7,testWhitegood,666
8,Whitegood,71,1,401,bm14,NeroMaschio,comp,401,test_comp7,testWhitegood,401
8,Whitegood,73,1,642,amore,Positivo,comp,642,test_comp7,testWhitegood,642
8,Whitegood,75,1,586,wm4,BiancoMaschio,comp,586,test_comp7,testWhitegood,586
8,Whitegood,77,1,556,terribile,Negativo,comp,556,test_comp7,testWhitegood,556
8,Whitegood,79,1,623,wm1,BiancoMaschio,comp,623,test_comp7,testWhitegood,623
8,Whitegood,81,1,552,gloria,Positivo,comp,552,test_comp7,testWhitegood,552
8,Whitegood,83,1,596,wf2,BiancoFem,comp,596,test_comp7,testWhitegood,596
8,Whitegood,85,1,590,fastidioso,Negativo,comp,590,test_comp7,testWhitegood,590
8,Whitegood,87,1,528,wf3,BiancoFem,comp,528,test_comp7,testWhitegood,528
8,Whitegood,89,1,790,pace,Positivo,comp,790,test_comp7,testWhitegood,790
8,Whitegood,91,1,488,wf6,BiancoFem,comp,488,test_comp7,testWhitegood,488
8,Whitegood,93,1,654,male,Negativo,comp,654,test_comp7,testWhitegood,654
8,Whitegood,95,0,422,bm23,NeroMaschio,comp,1722,test_comp7,testWhitegood,1722
8,Whitegood,98,1,586,cattivo,Negativo,comp,586,test_comp7,testWhitegood,586
8,Whitegood,100,1,540,bm14,NeroMaschio,comp,540,test_comp7,testWhitegood,540
8,Whitegood,102,1,664,gioia,Positivo,comp,664,test_comp7,testWhitegood,664
8,Whitegood,104,1,606,wf2,BiancoFem,comp,606,test_comp7,testWhitegood,606
8,Whitegood,106,1,649,fallimento,Negativo,comp,649,test_comp7,testWhitegood,649
8,Whitegood,108,1,472,wf6,BiancoFem,comp,472,test_comp7,testWhitegood,472
8,Whitegood,110,1,511,amore,Positivo,comp,511,test_comp7,testWhitegood,511
8,Whitegood,112,1,612,wf3,BiancoFem,comp,612,test_comp7,testWhitegood,612
8,Whitegood,114,1,558,felicità,Positivo,comp,558,test_comp7,testWhitegood,558
8,Whitegood,116,1,521,bm56,NeroMaschio,comp,521,test_comp7,testWhitegood,521
8,Whitegood,118,1,630,piacere,Positivo,comp,630,test_comp7,testWhitegood,630
8,Whitegood,120,1,574,bm23,NeroMaschio,comp,574,test_comp7,testWhitegood,574
8,Whitegood,122,1,401,buono,Positivo,comp,401,test_comp7,testWhitegood,401
9,Whitegood,2,1,1001,dolore,Negativo,comp,1001,prova_comp4,practiceWhitegood,1001
9,Whitegood,4,1,578,bm56,NeroMaschio,comp,578,prova_comp4,practiceWhitegood,578
9,Whitegood,6,1,597,gloria,Positivo,comp,597,prova_comp4,practiceWhitegood,597
9,Whitegood,8,1,527,wm6,BiancoMaschio,comp,527,prova_comp4,practiceWhitegood,527
9,Whitegood,10,1,628,gioia,Positivo,comp,628,prova_comp4,practiceWhitegood,628
9,Whitegood,12,1,524,bm23,NeroMaschio,comp,524,prova_comp4,practiceWhitegood,524
9,Whitegood,14,1,689,fallimento,Negativo,comp,689,prova_comp4,practiceWhitegood,689
9,Whitegood,16,1,551,bf56,NeroFemmina,comp,551,prova_comp4,practiceWhitegood,551
9,Whitegood,18,1,619,piacere,Positivo,comp,619,prova_comp4,practiceWhitegood,619
9,Whitegood,20,1,539,wf2,BiancoFem,comp,539,prova_comp4,practiceWhitegood,539
9,Whitegood,22,1,472,odio,Negativo,comp,472,prova_comp4,practiceWhitegood,472
9,Whitegood,24,0,471,wm4,BiancoMaschio,comp,1050,prova_comp4,practiceWhitegood,1050
9,Whitegood,27,1,622,buono,Positivo,comp,622,prova_comp4,practiceWhitegood,622
9,Whitegood,29,1,495,bf23,NeroFemmina,comp,495,prova_comp4,practiceWhitegood,495
9,Whitegood,31,1,525,fastidioso,Negativo,comp,525,prova_comp4,practiceWhitegood,525
9,Whitegood,33,1,497,bf14,NeroFemmina,comp,497,prova_comp4,practiceWhitegood,497
9,Whitegood,35,1,511,pace,Positivo,comp,511,prova_comp4,practiceWhitegood,511
9,Whitegood,37,1,508,bm14,NeroMaschio,comp,508,prova_comp4,practiceWhitegood,508
9,Whitegood,39,1,586,orribile,Negativo,comp,586,prova_comp4,practiceWhitegood,586
9,Whitegood,41,1,564,bm23,NeroMaschio,comp,564,prova_comp4,practiceWhitegood,564
9,Whitegood,44,1,1992,bf14,NeroFemmina,comp,1992,test_comp4,testWhitegood,1992
9,Whitegood,46,1,627,ridere,Positivo,comp,627,test_comp4,testWhitegood,627
9,Whitegood,48,1,499,bm56,NeroMaschio,comp,499,test_comp4,testWhitegood,499
9,Whitegood,50,1,577,amore,Positivo,comp,577,test_comp4,testWhitegood,577
9,Whitegood,52,1,683,wm1,BiancoMaschio,comp,683,test_comp4,testWhitegood,683
9,Whitegood,54,1,641,felicità,Positivo,comp,641,test_comp4,testWhitegood,641
9,Whitegood,56,1,513,wf3,BiancoFem,comp,513,test_comp4,testWhitegood,513
9,Whitegood,58,1,559,amore,Positivo,comp,559,test_comp4,testWhitegood,559
9,Whitegood,60,1,562,wf6,BiancoFem,comp,562,test_comp4,testWhitegood,562
9,Whitegood,62,1,494,buono,Positivo,comp,494,test_comp4,testWhitegood,494
9,Whitegood,64,1,483,wm6,BiancoMaschio,comp,483,test_comp4,testWhitegood,483
9,Whitegood,66,1,553,terribile,Negativo,comp,553,test_comp4,testWhitegood,553
9,Whitegood,68,1,661,wm1,BiancoMaschio,comp,661,test_comp4,testWhitegood,661
9,Whitegood,70,1,572,gioia,Positivo,comp,572,test_comp4,testWhitegood,572
9,Whitegood,72,1,511,bf23,NeroFemmina,comp,511,test_comp4,testWhitegood,511
9,Whitegood,74,1,469,gloria,Positivo,comp,469,test_comp4,testWhitegood,469
9,Whitegood,76,1,564,wf3,BiancoFem,comp,564,test_comp4,testWhitegood,564
9,Whitegood,78,1,503,male,Negativo,comp,503,test_comp4,testWhitegood,503
9,Whitegood,80,1,573,wf2,BiancoFem,comp,573,test_comp4,testWhitegood,573
9,Whitegood,82,1,536,cattivo,Negativo,comp,536,test_comp4,testWhitegood,536
9,Whitegood,84,1,484,bf56,NeroFemmina,comp,484,test_comp4,testWhitegood,484
9,Whitegood,86,1,522,pace,Positivo,comp,522,test_comp4,testWhitegood,522
9,Whitegood,88,1,487,bm14,NeroMaschio,comp,487,test_comp4,testWhitegood,487
9,Whitegood,90,1,669,fallimento,Negativo,comp,669,test_comp4,testWhitegood,669
9,Whitegood,92,1,772,wm4,BiancoMaschio,comp,772,test_comp4,testWhitegood,772
9,Whitegood,94,1,511,dolore,Negativo,comp,511,test_comp4,testWhitegood,511
9,Whitegood,96,1,468,bm14,NeroMaschio,comp,468,test_comp4,testWhitegood,468
9,Whitegood,98,1,819,odio,Negativo,comp,819,test_comp4,testWhitegood,819
9,Whitegood,100,1,540,wf6,BiancoFem,comp,540,test_comp4,testWhitegood,540
9,Whitegood,102,1,688,cattivo,Negativo,comp,688,test_comp4,testWhitegood,688
9,Whitegood,104,1,478,bf56,NeroFemmina,comp,478,test_comp4,testWhitegood,478
9,Whitegood,106,1,485,terribile,Negativo,comp,485,test_comp4,testWhitegood,485
9,Whitegood,108,1,484,wf6,BiancoFem,comp,484,test_comp4,testWhitegood,484
9,Whitegood,110,1,610,ridere,Positivo,comp,610,test_comp4,testWhitegood,610
9,Whitegood,112,1,435,bm56,NeroMaschio,comp,435,test_comp4,testWhitegood,435
9,Whitegood,114,1,563,piacere,Positivo,comp,563,test_comp4,testWhitegood,563
9,Whitegood,116,1,766,wf2,BiancoFem,comp,766,test_comp4,testWhitegood,766
9,Whitegood,118,1,465,orribile,Negativo,comp,465,test_comp4,testWhitegood,465
9,Whitegood,120,0,416,wm1,BiancoMaschio,comp,902,test_comp4,testWhitegood,902
9,Whitegood,123,1,556,fastidioso,Negativo,comp,556,test_comp4,testWhitegood,556
9,Whitebad,2,1,1098,male,Negativo,inc,1098,prova_inc6,practiceWhitebad,1098
9,Whitebad,4,0,767,wm6,BiancoMaschio,inc,1671,prova_inc6,practiceWhitebad,1671
9,Whitebad,7,0,1102,orribile,Negativo,inc,1607,prova_inc6,practiceWhitebad,1607
9,Whitebad,10,1,1614,wm1,BiancoMaschio,inc,1614,prova_inc6,practiceWhitebad,1614
9,Whitebad,12,1,1343,felicità,Positivo,inc,1343,prova_inc6,practiceWhitebad,1343
9,Whitebad,14,1,1076,bm14,NeroMaschio,inc,1076,prova_inc6,practiceWhitebad,1076
9,Whitebad,16,1,1355,odio,Negativo,inc,1355,prova_inc6,practiceWhitebad,1355
9,Whitebad,18,1,1399,bm56,NeroMaschio,inc,1399,prova_inc6,practiceWhitebad,1399
9,Whitebad,20,0,1041,pace,Positivo,inc,1488,prova_inc6,practiceWhitebad,1488
9,Whitebad,23,1,1582,wf6,BiancoFem,inc,1582,prova_inc6,practiceWhitebad,1582
9,Whitebad,25,0,1001,fallimento,Negativo,inc,1466,prova_inc6,practiceWhitebad,1466
9,Whitebad,28,1,1359,wm4,BiancoMaschio,inc,1359,prova_inc6,practiceWhitebad,1359
9,Whitebad,30,1,1211,fastidioso,Negativo,inc,1211,prova_inc6,practiceWhitebad,1211
9,Whitebad,32,1,1052,bf23,NeroFemmina,inc,1052,prova_inc6,practiceWhitebad,1052
9,Whitebad,34,1,1476,cattivo,Negativo,inc,1476,prova_inc6,practiceWhitebad,1476
9,Whitebad,36,1,1066,bf56,NeroFemmina,inc,1066,prova_inc6,practiceWhitebad,1066
9,Whitebad,38,0,1090,gioia,Positivo,inc,1528,prova_inc6,practiceWhitebad,1528
9,Whitebad,41,1,1022,wf3,BiancoFem,inc,1022,prova_inc6,practiceWhitebad,1022
9,Whitebad,43,1,1271,amore,Positivo,inc,1271,prova_inc6,practiceWhitebad,1271
9,Whitebad,45,1,1126,wf2,BiancoFem,inc,1126,prova_inc6,practiceWhitebad,1126
9,Whitebad,48,1,943,bm23,NeroMaschio,inc,943,test_inc6,testWhitebad,943
9,Whitebad,50,1,1332,gloria,Positivo,inc,1332,test_inc6,testWhitebad,1332
9,Whitebad,52,1,1104,bf14,NeroFemmina,inc,1104,test_inc6,testWhitebad,1104
9,Whitebad,54,1,1390,ridere,Positivo,inc,1390,test_inc6,testWhitebad,1390
9,Whitebad,56,1,592,bf14,NeroFemmina,inc,592,test_inc6,testWhitebad,592
9,Whitebad,58,1,1139,piacere,Positivo,inc,1139,test_inc6,testWhitebad,1139
9,Whitebad,60,0,895,bm56,NeroMaschio,inc,1418,test_inc6,testWhitebad,1418
9,Whitebad,63,1,816,buono,Positivo,inc,816,test_inc6,testWhitebad,816
9,Whitebad,65,1,672,wm4,BiancoMaschio,inc,672,test_inc6,testWhitebad,672
9,Whitebad,67,1,688,terribile,Negativo,inc,688,test_inc6,testWhitebad,688
9,Whitebad,69,1,622,wf2,BiancoFem,inc,622,test_inc6,testWhitebad,622
9,Whitebad,71,1,527,dolore,Negativo,inc,527,test_inc6,testWhitebad,527
9,Whitebad,73,1,619,wm1,BiancoMaschio,inc,619,test_inc6,testWhitebad,619
9,Whitebad,75,0,388,felicità,Positivo,inc,968,test_inc6,testWhitebad,968
9,Whitebad,78,1,1382,wf3,BiancoFem,inc,1382,test_inc6,testWhitebad,1382
9,Whitebad,80,1,705,amore,Positivo,inc,705,test_inc6,testWhitebad,705
9,Whitebad,82,0,2038,wm6,BiancoMaschio,inc,2467,test_inc6,testWhitebad,2467
9,Whitebad,85,0,1189,gloria,Positivo,inc,1731,test_inc6,testWhitebad,1731
9,Whitebad,88,1,1281,bm23,NeroMaschio,inc,1281,test_inc6,testWhitebad,1281
9,Whitebad,90,0,848,piacere,Positivo,inc,1198,test_inc6,testWhitebad,1198
9,Whitebad,93,1,665,bm14,NeroMaschio,inc,665,test_inc6,testWhitebad,665
9,Whitebad,95,1,648,buono,Positivo,inc,648,test_inc6,testWhitebad,648
9,Whitebad,97,1,920,bf56,NeroFemmina,inc,920,test_inc6,testWhitebad,920
9,Whitebad,99,0,668,odio,Negativo,inc,1373,test_inc6,testWhitebad,1373
9,Whitebad,102,1,1054,wf6,BiancoFem,inc,1054,test_inc6,testWhitebad,1054
9,Whitebad,104,1,894,fallimento,Negativo,inc,894,test_inc6,testWhitebad,894
9,Whitebad,106,1,932,bf23,NeroFemmina,inc,932,test_inc6,testWhitebad,932
9,Whitebad,108,1,840,terribile,Negativo,inc,840,test_inc6,testWhitebad,840
9,Whitebad,110,1,888,wf2,BiancoFem,inc,888,test_inc6,testWhitebad,888
9,Whitebad,112,0,783,ridere,Positivo,inc,1438,test_inc6,testWhitebad,1438
9,Whitebad,115,1,1182,wf3,BiancoFem,inc,1182,test_inc6,testWhitebad,1182
9,Whitebad,117,1,1536,gioia,Positivo,inc,1536,test_inc6,testWhitebad,1536
9,Whitebad,119,1,885,bm56,NeroMaschio,inc,885,test_inc6,testWhitebad,885
9,Whitebad,121,0,659,male,Negativo,inc,1156,test_inc6,testWhitebad,1156
9,Whitebad,124,1,790,bm23,NeroMaschio,inc,790,test_inc6,testWhitebad,790
9,Whitebad,126,1,793,orribile,Negativo,inc,793,test_inc6,testWhitebad,793
9,Whitebad,128,1,762,wf6,BiancoFem,inc,762,test_inc6,testWhitebad,762
9,Whitebad,130,1,654,fastidioso,Negativo,inc,654,test_inc6,testWhitebad,654
9,Whitebad,132,1,621,bf56,NeroFemmina,inc,621,test_inc6,testWhitebad,621
9,Whitebad,134,1,1111,cattivo,Negativo,inc,1111,test_inc6,testWhitebad,1111
10,Whitegood,2,1,599,fallimento,Negativo,comp,599,prova_comp5,practiceWhitegood,599
10,Whitegood,4,1,584,wm4,BiancoMaschio,comp,584,prova_comp5,practiceWhitegood,584
10,Whitegood,6,1,635,cattivo,Negativo,comp,635,prova_comp5,practiceWhitegood,635
10,Whitegood,8,1,443,bm14,NeroMaschio,comp,443,prova_comp5,practiceWhitegood,443
10,Whitegood,10,1,1083,ridere,Positivo,comp,1083,prova_comp5,practiceWhitegood,1083
10,Whitegood,12,1,426,wf3,BiancoFem,comp,426,prova_comp5,practiceWhitegood,426
10,Whitegood,14,1,451,felicità,Positivo,comp,451,prova_comp5,practiceWhitegood,451
10,Whitegood,16,1,514,bf56,NeroFemmina,comp,514,prova_comp5,practiceWhitegood,514
10,Whitegood,18,1,496,odio,Negativo,comp,496,prova_comp5,practiceWhitegood,496
10,Whitegood,20,1,485,bf23,NeroFemmina,comp,485,prova_comp5,practiceWhitegood,485
10,Whitegood,22,1,516,gloria,Positivo,comp,516,prova_comp5,practiceWhitegood,516
10,Whitegood,24,1,528,bf14,NeroFemmina,comp,528,prova_comp5,practiceWhitegood,528
10,Whitegood,26,1,501,dolore,Negativo,comp,501,prova_comp5,practiceWhitegood,501
10,Whitegood,28,1,387,bm56,NeroMaschio,comp,387,prova_comp5,practiceWhitegood,387
10,Whitegood,30,1,501,orribile,Negativo,comp,501,prova_comp5,practiceWhitegood,501
10,Whitegood,32,1,482,wf2,BiancoFem,comp,482,prova_comp5,practiceWhitegood,482
10,Whitegood,34,1,401,gioia,Positivo,comp,401,prova_comp5,practiceWhitegood,401
10,Whitegood,36,1,474,bm23,NeroMaschio,comp,474,prova_comp5,practiceWhitegood,474
10,Whitegood,38,1,473,male,Negativo,comp,473,prova_comp5,practiceWhitegood,473
10,Whitegood,40,1,432,wf6,BiancoFem,comp,432,prova_comp5,practiceWhitegood,432
10,Whitegood,43,1,1486,bf56,NeroFemmina,comp,1486,test_comp5,testWhitegood,1486
10,Whitegood,45,1,517,amore,Positivo,comp,517,test_comp5,testWhitegood,517
10,Whitegood,47,1,593,wm6,BiancoMaschio,comp,593,test_comp5,testWhitegood,593
10,Whitegood,49,1,524,terribile,Negativo,comp,524,test_comp5,testWhitegood,524
10,Whitegood,51,0,921,wm1,BiancoMaschio,comp,981,test_comp5,testWhitegood,981
10,Whitegood,54,1,1010,piacere,Positivo,comp,1010,test_comp5,testWhitegood,1010
10,Whitegood,56,1,555,bm23,NeroMaschio,comp,555,test_comp5,testWhitegood,555
10,Whitegood,58,1,751,buono,Positivo,comp,751,test_comp5,testWhitegood,751
10,Whitegood,60,1,443,wf6,BiancoFem,comp,443,test_comp5,testWhitegood,443
10,Whitegood,62,1,483,pace,Positivo,comp,483,test_comp5,testWhitegood,483
10,Whitegood,64,1,481,bm14,NeroMaschio,comp,481,test_comp5,testWhitegood,481
10,Whitegood,66,1,511,buono,Positivo,comp,511,test_comp5,testWhitegood,511
10,Whitegood,68,1,757,wf3,BiancoFem,comp,757,test_comp5,testWhitegood,757
10,Whitegood,70,1,593,fastidioso,Negativo,comp,593,test_comp5,testWhitegood,593
10,Whitegood,72,1,618,wm4,BiancoMaschio,comp,618,test_comp5,testWhitegood,618
10,Whitegood,74,1,787,gloria,Positivo,comp,787,test_comp5,testWhitegood,787
10,Whitegood,76,1,733,bf14,NeroFemmina,comp,733,test_comp5,testWhitegood,733
10,Whitegood,78,0,618,piacere,Positivo,comp,1235,test_comp5,testWhitegood,1235
10,Whitegood,81,1,545,wf2,BiancoFem,comp,545,test_comp5,testWhitegood,545
10,Whitegood,83,1,589,fallimento,Negativo,comp,589,test_comp5,testWhitegood,589
10,Whitegood,85,1,527,wm6,BiancoMaschio,comp,527,test_comp5,testWhitegood,527
10,Whitegood,87,1,540,dolore,Negativo,comp,540,test_comp5,testWhitegood,540
10,Whitegood,89,1,496,bm56,NeroMaschio,comp,496,test_comp5,testWhitegood,496
10,Whitegood,91,1,479,odio,Negativo,comp,479,test_comp5,testWhitegood,479
10,Whitegood,93,1,501,bf23,NeroFemmina,comp,501,test_comp5,testWhitegood,501
10,Whitegood,95,1,570,ridere,Positivo,comp,570,test_comp5,testWhitegood,570
10,Whitegood,97,1,773,wm1,BiancoMaschio,comp,773,test_comp5,testWhitegood,773
10,Whitegood,99,1,1352,amore,Positivo,comp,1352,test_comp5,testWhitegood,1352
10,Whitegood,101,1,452,wf2,BiancoFem,comp,452,test_comp5,testWhitegood,452
10,Whitegood,103,1,524,orribile,Negativo,comp,524,test_comp5,testWhitegood,524
10,Whitegood,105,1,616,wm4,BiancoMaschio,comp,616,test_comp5,testWhitegood,616
10,Whitegood,107,1,529,fastidioso,Negativo,comp,529,test_comp5,testWhitegood,529
10,Whitegood,109,1,533,bf23,NeroFemmina,comp,533,test_comp5,testWhitegood,533
10,Whitegood,111,1,610,pace,Positivo,comp,610,test_comp5,testWhitegood,610
10,Whitegood,113,1,619,wf6,BiancoFem,comp,619,test_comp5,testWhitegood,619
10,Whitegood,115,1,524,terribile,Negativo,comp,524,test_comp5,testWhitegood,524
10,Whitegood,117,1,496,bm56,NeroMaschio,comp,496,test_comp5,testWhitegood,496
10,Whitegood,119,1,479,male,Negativo,comp,479,test_comp5,testWhitegood,479
10,Whitegood,121,1,453,bm14,NeroMaschio,comp,453,test_comp5,testWhitegood,453
10,Whitegood,123,1,500,felicità,Positivo,comp,500,test_comp5,testWhitegood,500
10,Whitebad,2,1,707,amore,Positivo,inc,707,prova_inc7,practiceWhitebad,707
10,Whitebad,4,1,448,bm23,NeroMaschio,inc,448,prova_inc7,practiceWhitebad,448
10,Whitebad,6,0,440,orribile,Negativo,inc,926,prova_inc7,practiceWhitebad,926
10,Whitebad,9,1,635,wf3,BiancoFem,inc,635,prova_inc7,practiceWhitebad,635
10,Whitebad,11,0,556,fastidioso,Negativo,inc,1153,prova_inc7,practiceWhitebad,1153
10,Whitebad,14,1,639,wf6,BiancoFem,inc,639,prova_inc7,practiceWhitebad,639
10,Whitebad,16,0,679,gloria,Positivo,inc,1251,prova_inc7,practiceWhitebad,1251
10,Whitebad,19,1,1326,bm14,NeroMaschio,inc,1326,prova_inc7,practiceWhitebad,1326
10,Whitebad,21,1,1348,gioia,Positivo,inc,1348,prova_inc7,practiceWhitebad,1348
10,Whitebad,23,1,527,bf14,NeroFemmina,inc,527,prova_inc7,practiceWhitebad,527
10,Whitebad,25,1,588,dolore,Negativo,inc,588,prova_inc7,practiceWhitebad,588
10,Whitebad,27,1,694,bf56,NeroFemmina,inc,694,prova_inc7,practiceWhitebad,694
10,Whitebad,29,1,789,ridere,Positivo,inc,789,prova_inc7,practiceWhitebad,789
10,Whitebad,31,1,719,wm6,BiancoMaschio,inc,719,prova_inc7,practiceWhitebad,719
10,Whitebad,33,0,772,pace,Positivo,inc,1241,prova_inc7,practiceWhitebad,1241
10,Whitebad,36,1,603,bm56,NeroMaschio,inc,603,prova_inc7,practiceWhitebad,603
10,Whitebad,38,1,397,buono,Positivo,inc,397,prova_inc7,practiceWhitebad,397
10,Whitebad,40,1,638,wm4,BiancoMaschio,inc,638,prova_inc7,practiceWhitebad,638
10,Whitebad,42,1,790,piacere,Positivo,inc,790,prova_inc7,practiceWhitebad,790
10,Whitebad,44,1,505,bf23,NeroFemmina,inc,505,prova_inc7,practiceWhitebad,505
10,Whitebad,47,1,1004,bf23,NeroFemmina,inc,1004,test_inc7,testWhitebad,1004
10,Whitebad,49,0,502,cattivo,Negativo,inc,1064,test_inc7,testWhitebad,1064
10,Whitebad,52,1,716,bf56,NeroFemmina,inc,716,test_inc7,testWhitebad,716
10,Whitebad,54,1,546,felicità,Positivo,inc,546,test_inc7,testWhitebad,546
10,Whitebad,56,1,541,wm1,BiancoMaschio,inc,541,test_inc7,testWhitebad,541
10,Whitebad,58,1,705,male,Negativo,inc,705,test_inc7,testWhitebad,705
10,Whitebad,60,1,407,wf2,BiancoFem,inc,407,test_inc7,testWhitebad,407
10,Whitebad,62,0,569,pace,Positivo,inc,1154,test_inc7,testWhitebad,1154
10,Whitebad,65,0,1179,wf2,BiancoFem,inc,1903,test_inc7,testWhitebad,1903
10,Whitebad,68,1,1128,gioia,Positivo,inc,1128,test_inc7,testWhitebad,1128
10,Whitebad,70,1,653,wm1,BiancoMaschio,inc,653,test_inc7,testWhitebad,653
10,Whitebad,72,1,932,odio,Negativo,inc,932,test_inc7,testWhitebad,932
10,Whitebad,74,1,1257,wf3,BiancoFem,inc,1257,test_inc7,testWhitebad,1257
10,Whitebad,76,1,585,terribile,Negativo,inc,585,test_inc7,testWhitebad,585
10,Whitebad,78,1,603,wm4,BiancoMaschio,inc,603,test_inc7,testWhitebad,603
10,Whitebad,80,1,948,felicità,Positivo,inc,948,test_inc7,testWhitebad,948
10,Whitebad,82,1,552,wf6,BiancoFem,inc,552,test_inc7,testWhitebad,552
10,Whitebad,84,1,748,fallimento,Negativo,inc,748,test_inc7,testWhitebad,748
10,Whitebad,86,1,503,wm6,BiancoMaschio,inc,503,test_inc7,testWhitebad,503
10,Whitebad,88,1,621,cattivo,Negativo,inc,621,test_inc7,testWhitebad,621
10,Whitebad,90,0,422,bm23,NeroMaschio,inc,746,test_inc7,testWhitebad,746
10,Whitebad,93,0,593,terribile,Negativo,inc,1210,test_inc7,testWhitebad,1210
10,Whitebad,96,0,673,bf14,NeroFemmina,inc,1175,test_inc7,testWhitebad,1175
10,Whitebad,99,0,2451,odio,Negativo,inc,2965,test_inc7,testWhitebad,2965
10,Whitebad,102,1,38,wm6,BiancoMaschio,inc,38,test_inc7,testWhitebad,38
10,Whitebad,104,1,1022,amore,Positivo,inc,1022,test_inc7,testWhitebad,1022
10,Whitebad,106,1,391,bm56,NeroMaschio,inc,391,test_inc7,testWhitebad,391
10,Whitebad,108,1,1393,piacere,Positivo,inc,1393,test_inc7,testWhitebad,1393
10,Whitebad,110,1,579,wm1,BiancoMaschio,inc,579,test_inc7,testWhitebad,579
10,Whitebad,112,1,1462,fallimento,Negativo,inc,1462,test_inc7,testWhitebad,1462
10,Whitebad,114,1,1997,bm14,NeroMaschio,inc,1997,test_inc7,testWhitebad,1997
10,Whitebad,116,0,479,male,Negativo,inc,852,test_inc7,testWhitebad,852
10,Whitebad,119,1,1431,bf14,NeroFemmina,inc,1431,test_inc7,testWhitebad,1431
10,Whitebad,121,1,880,dolore,Negativo,inc,880,test_inc7,testWhitebad,880
10,Whitebad,123,1,590,bf23,NeroFemmina,inc,590,test_inc7,testWhitebad,590
10,Whitebad,125,0,704,buono,Positivo,inc,988,test_inc7,testWhitebad,988
10,Whitebad,128,0,9,wf2,BiancoFem,inc,577,test_inc7,testWhitebad,577
10,Whitebad,131,1,1003,ridere,Positivo,inc,1003,test_inc7,testWhitebad,1003
10,Whitebad,133,1,476,bm23,NeroMaschio,inc,476,test_inc7,testWhitebad,476
10,Whitebad,135,1,627,fastidioso,Negativo,inc,627,test_inc7,testWhitebad,627
11,Whitegood,2,1,703,gioia,Positivo,comp,703,prova_comp4,practiceWhitegood,703
11,Whitegood,4,1,900,wf2,BiancoFem,comp,900,prova_comp4,practiceWhitegood,900
11,Whitegood,6,1,690,male,Negativo,comp,690,prova_comp4,practiceWhitegood,690
11,Whitegood,8,1,560,bm14,NeroMaschio,comp,560,prova_comp4,practiceWhitegood,560
11,Whitegood,10,1,572,piacere,Positivo,comp,572,prova_comp4,practiceWhitegood,572
11,Whitegood,12,1,791,bf56,NeroFemmina,comp,791,prova_comp4,practiceWhitegood,791
11,Whitegood,14,1,1017,amore,Positivo,comp,1017,prova_comp4,practiceWhitegood,1017
11,Whitegood,16,1,810,wm1,BiancoMaschio,comp,810,prova_comp4,practiceWhitegood,810
11,Whitegood,18,1,1260,orribile,Negativo,comp,1260,prova_comp4,practiceWhitegood,1260
11,Whitegood,20,1,755,wm6,BiancoMaschio,comp,755,prova_comp4,practiceWhitegood,755
11,Whitegood,22,1,783,ridere,Positivo,comp,783,prova_comp4,practiceWhitegood,783
11,Whitegood,24,1,897,wm4,BiancoMaschio,comp,897,prova_comp4,practiceWhitegood,897
11,Whitegood,26,1,591,felicità,Positivo,comp,591,prova_comp4,practiceWhitegood,591
11,Whitegood,28,1,601,bf14,NeroFemmina,comp,601,prova_comp4,practiceWhitegood,601
11,Whitegood,30,1,851,fastidioso,Negativo,comp,851,prova_comp4,practiceWhitegood,851
11,Whitegood,32,1,763,wf6,BiancoFem,comp,763,prova_comp4,practiceWhitegood,763
11,Whitegood,34,1,654,odio,Negativo,comp,654,prova_comp4,practiceWhitegood,654
11,Whitegood,36,1,654,bm23,NeroMaschio,comp,654,prova_comp4,practiceWhitegood,654
11,Whitegood,38,1,669,cattivo,Negativo,comp,669,prova_comp4,practiceWhitegood,669
11,Whitegood,40,1,708,bm56,NeroMaschio,comp,708,prova_comp4,practiceWhitegood,708
11,Whitegood,43,1,671,bf23,NeroFemmina,comp,671,test_comp4,testWhitegood,671
11,Whitegood,45,1,678,terribile,Negativo,comp,678,test_comp4,testWhitegood,678
11,Whitegood,47,1,604,bf23,NeroFemmina,comp,604,test_comp4,testWhitegood,604
11,Whitegood,49,1,790,gloria,Positivo,comp,790,test_comp4,testWhitegood,790
11,Whitegood,51,1,536,bf56,NeroFemmina,comp,536,test_comp4,testWhitegood,536
11,Whitegood,53,1,1164,buono,Positivo,comp,1164,test_comp4,testWhitegood,1164
11,Whitegood,55,1,951,wf3,BiancoFem,comp,951,test_comp4,testWhitegood,951
11,Whitegood,57,1,771,pace,Positivo,comp,771,test_comp4,testWhitegood,771
11,Whitegood,59,1,622,bm23,NeroMaschio,comp,622,test_comp4,testWhitegood,622
11,Whitegood,61,1,599,fallimento,Negativo,comp,599,test_comp4,testWhitegood,599
11,Whitegood,63,1,608,bf14,NeroFemmina,comp,608,test_comp4,testWhitegood,608
11,Whitegood,65,1,618,ridere,Positivo,comp,618,test_comp4,testWhitegood,618
11,Whitegood,67,1,579,bm14,NeroMaschio,comp,579,test_comp4,testWhitegood,579
11,Whitegood,69,1,830,dolore,Negativo,comp,830,test_comp4,testWhitegood,830
11,Whitegood,71,1,622,bm56,NeroMaschio,comp,622,test_comp4,testWhitegood,622
11,Whitegood,73,1,527,gioia,Positivo,comp,527,test_comp4,testWhitegood,527
11,Whitegood,75,1,571,wm4,BiancoMaschio,comp,571,test_comp4,testWhitegood,571
11,Whitegood,77,1,574,felicità,Positivo,comp,574,test_comp4,testWhitegood,574
11,Whitegood,79,1,521,wf6,BiancoFem,comp,521,test_comp4,testWhitegood,521
11,Whitegood,81,1,606,fastidioso,Negativo,comp,606,test_comp4,testWhitegood,606
11,Whitegood,83,1,640,bf23,NeroFemmina,comp,640,test_comp4,testWhitegood,640
11,Whitegood,85,1,536,fallimento,Negativo,comp,536,test_comp4,testWhitegood,536
11,Whitegood,87,1,588,bm56,NeroMaschio,comp,588,test_comp4,testWhitegood,588
11,Whitegood,89,1,518,buono,Positivo,comp,518,test_comp4,testWhitegood,518
11,Whitegood,91,1,555,wf3,BiancoFem,comp,555,test_comp4,testWhitegood,555
11,Whitegood,93,1,623,gloria,Positivo,comp,623,test_comp4,testWhitegood,623
11,Whitegood,95,1,592,wm6,BiancoMaschio,comp,592,test_comp4,testWhitegood,592
11,Whitegood,97,1,602,piacere,Positivo,comp,602,test_comp4,testWhitegood,602
11,Whitegood,99,1,715,wm1,BiancoMaschio,comp,715,test_comp4,testWhitegood,715
11,Whitegood,101,1,569,terribile,Negativo,comp,569,test_comp4,testWhitegood,569
11,Whitegood,103,1,611,wf2,BiancoFem,comp,611,test_comp4,testWhitegood,611
11,Whitegood,105,1,493,cattivo,Negativo,comp,493,test_comp4,testWhitegood,493
11,Whitegood,107,1,794,wm4,BiancoMaschio,comp,794,test_comp4,testWhitegood,794
11,Whitegood,109,1,597,amore,Positivo,comp,597,test_comp4,testWhitegood,597
11,Whitegood,111,1,558,wf3,BiancoFem,comp,558,test_comp4,testWhitegood,558
11,Whitegood,113,1,546,odio,Negativo,comp,546,test_comp4,testWhitegood,546
11,Whitegood,115,1,462,bm23,NeroMaschio,comp,462,test_comp4,testWhitegood,462
11,Whitegood,117,1,549,orribile,Negativo,comp,549,test_comp4,testWhitegood,549
11,Whitegood,119,1,465,wf6,BiancoFem,comp,465,test_comp4,testWhitegood,465
11,Whitegood,121,1,568,dolore,Negativo,comp,568,test_comp4,testWhitegood,568
11,Whitebad,2,1,1732,male,Negativo,inc,1732,prova_inc6,practiceWhitebad,1732
11,Whitebad,4,1,1224,wf2,BiancoFem,inc,1224,prova_inc6,practiceWhitebad,1224
11,Whitebad,6,1,1377,terribile,Negativo,inc,1377,prova_inc6,practiceWhitebad,1377
11,Whitebad,8,1,1187,bm14,NeroMaschio,inc,1187,prova_inc6,practiceWhitebad,1187
11,Whitebad,10,1,942,odio,Negativo,inc,942,prova_inc6,practiceWhitebad,942
11,Whitebad,12,1,1074,bf56,NeroFemmina,inc,1074,prova_inc6,practiceWhitebad,1074
11,Whitebad,14,0,1161,ridere,Positivo,inc,1812,prova_inc6,practiceWhitebad,1812
11,Whitebad,17,1,1034,wf3,BiancoFem,inc,1034,prova_inc6,practiceWhitebad,1034
11,Whitebad,19,1,2210,cattivo,Negativo,inc,2210,prova_inc6,practiceWhitebad,2210
11,Whitebad,21,1,2051,wm4,BiancoMaschio,inc,2051,prova_inc6,practiceWhitebad,2051
11,Whitebad,23,1,1763,gioia,Positivo,inc,1763,prova_inc6,practiceWhitebad,1763
11,Whitebad,25,1,1263,bm56,NeroMaschio,inc,1263,prova_inc6,practiceWhitebad,1263
11,Whitebad,27,1,1807,orribile,Negativo,inc,1807,prova_inc6,practiceWhitebad,1807
11,Whitebad,29,0,1273,wm1,BiancoMaschio,inc,2439,prova_inc6,practiceWhitebad,2439
11,Whitebad,32,1,1520,amore,Positivo,inc,1520,prova_inc6,practiceWhitebad,1520
11,Whitebad,34,1,1069,wf6,BiancoFem,inc,1069,prova_inc6,practiceWhitebad,1069
11,Whitebad,36,1,1629,gloria,Positivo,inc,1629,prova_inc6,practiceWhitebad,1629
11,Whitebad,38,1,1173,bf23,NeroFemmina,inc,1173,prova_inc6,practiceWhitebad,1173
11,Whitebad,40,1,1808,piacere,Positivo,inc,1808,prova_inc6,practiceWhitebad,1808
11,Whitebad,42,1,1337,wm6,BiancoMaschio,inc,1337,prova_inc6,practiceWhitebad,1337
11,Whitebad,45,1,952,bm23,NeroMaschio,inc,952,test_inc6,testWhitebad,952
11,Whitebad,47,1,788,fastidioso,Negativo,inc,788,test_inc6,testWhitebad,788
11,Whitebad,49,1,902,wm6,BiancoMaschio,inc,902,test_inc6,testWhitebad,902
11,Whitebad,51,0,652,dolore,Negativo,inc,1102,test_inc6,testWhitebad,1102
11,Whitebad,54,1,1344,wm1,BiancoMaschio,inc,1344,test_inc6,testWhitebad,1344
11,Whitebad,56,1,1877,pace,Positivo,inc,1877,test_inc6,testWhitebad,1877
11,Whitebad,58,1,979,wm4,BiancoMaschio,inc,979,test_inc6,testWhitebad,979
11,Whitebad,60,1,943,fallimento,Negativo,inc,943,test_inc6,testWhitebad,943
11,Whitebad,62,0,1466,wf6,BiancoFem,inc,1889,test_inc6,testWhitebad,1889
11,Whitebad,65,1,992,felicità,Positivo,inc,992,test_inc6,testWhitebad,992
11,Whitebad,67,1,1209,bf14,NeroFemmina,inc,1209,test_inc6,testWhitebad,1209
11,Whitebad,69,1,1523,buono,Positivo,inc,1523,test_inc6,testWhitebad,1523
11,Whitebad,71,1,2200,bm14,NeroMaschio,inc,2200,test_inc6,testWhitebad,2200
11,Whitebad,73,1,843,amore,Positivo,inc,843,test_inc6,testWhitebad,843
11,Whitebad,75,1,1034,wf2,BiancoFem,inc,1034,test_inc6,testWhitebad,1034
11,Whitebad,77,1,1306,terribile,Negativo,inc,1306,test_inc6,testWhitebad,1306
11,Whitebad,79,1,616,wf3,BiancoFem,inc,616,test_inc6,testWhitebad,616
11,Whitebad,81,1,729,male,Negativo,inc,729,test_inc6,testWhitebad,729
11,Whitebad,83,1,742,bm56,NeroMaschio,inc,742,test_inc6,testWhitebad,742
11,Whitebad,85,1,826,odio,Negativo,inc,826,test_inc6,testWhitebad,826
11,Whitebad,87,1,770,wf3,BiancoFem,inc,770,test_inc6,testWhitebad,770
11,Whitebad,89,1,1013,buono,Positivo,inc,1013,test_inc6,testWhitebad,1013
11,Whitebad,91,1,1030,bf56,NeroFemmina,inc,1030,test_inc6,testWhitebad,1030
11,Whitebad,93,1,1247,gioia,Positivo,inc,1247,test_inc6,testWhitebad,1247
11,Whitebad,95,1,567,bf14,NeroFemmina,inc,567,test_inc6,testWhitebad,567
11,Whitebad,97,1,890,piacere,Positivo,inc,890,test_inc6,testWhitebad,890
11,Whitebad,99,1,848,bf23,NeroFemmina,inc,848,test_inc6,testWhitebad,848
11,Whitebad,101,1,904,orribile,Negativo,inc,904,test_inc6,testWhitebad,904
11,Whitebad,103,0,518,bm23,NeroMaschio,inc,999,test_inc6,testWhitebad,999
11,Whitebad,106,1,1543,pace,Positivo,inc,1543,test_inc6,testWhitebad,1543
